time,seconds_elapsed,z,y,x
1620174243889585200,0.019585205078125,1.7932950373798608,0.1409983702301979,-1.0614937244322151
1620174243899513300,0.029513427734375,1.9768571225732563,-0.10719751517623663,-0.9087145347110926
1620174243909441300,0.039441162109375,2.023406107780337,-0.2768462258294225,-1.0441397079188377
1620174243919370000,0.049369873046875,2.0701988386154175,0.1021226961299777,-0.8874624878458678
1620174243929298000,0.0592978515625,1.8359446770608423,0.19743074380904435,-0.7086345185022801
1620174243939225900,0.069225830078125,1.5296756651312111,-0.05237257679402828,-0.6928600993305444
1620174243949153800,0.07915380859375,0.9669248777478933,-0.36626959938406944,-0.891302212139219
1620174243959082000,0.08908203125,0.4477998816013336,-0.5842340126559138,-1.1037977655459195
1620174243969010000,0.099010009765625,0.555788547155261,-0.5729734907120466,-1.349803958888352
1620174243978937900,0.108937744140625,0.6539665973126888,-0.24548984131813048,-1.6464910496108234
1620174243988865800,0.11886572265625,1.0350853907823563,0.18799451468288897,-1.8108463300310074
1620174243998794000,0.1287939453125,1.6822282795548438,0.8727218687012791,-1.930340870591998
1620174244008722200,0.13872216796875,2.4901199486881493,1.561425725135207,-1.8340332904815673
1620174244018650000,0.148650146484375,2.684151989969611,1.4195160852789879,-2.1336976434491572
1620174244028578000,0.158578125,2.137712870439887,1.350390818865597,-2.3846559793062507
1620174244038506000,0.168506103515625,1.4765192444831132,1.3126567160159348,-2.1741269767321647
1620174244048434000,0.178433837890625,0.7620996397733688,1.0276885585293174,-1.8312115110591052
1620174244058362000,0.188362060546875,-0.10760229658484459,1.155887945201993,-1.7012965526401995
1620174244068290000,0.1982900390625,-0.7822405105262994,1.8894500572770834,-1.2453702093370258
1620174244078218000,0.208218017578125,-0.8654548003077507,2.7475618013456464,-1.5773314425364136
1620174244088146000,0.21814599609375,-0.7920522949665785,3.1309546772271393,-2.0706687942147255
1620174244098073900,0.228073974609375,-1.2258154679089783,3.657547525036335,-1.9579978160634637
1620174244108002000,0.238001953125,-1.8766215553641319,3.776562319256365,-1.851288961187005
1620174244117930000,0.247929931640625,-2.2049878328114745,3.299310717721283,-1.8215785903170705
1620174244127858000,0.25785791015625,-1.4586048176079989,2.6324907763153313,-1.538915494902432
1620174244137785900,0.267785888671875,-0.022804537004232406,2.091500277580321,-1.3450550107955932
1620174244147713800,0.2777138671875,4.736764318490028,1.507457988104224,-0.9109259271502494
1620174244157642000,0.28764208984375,4.322391490194201,1.7684721462905406,0.40415976957827804
1620174244167570000,0.29756982421875,0.0888876592427492,1.6136808130294085,1.4839622539654374
1620174244177497900,0.307497802734375,-3.585311725386977,1.4285451949089765,2.0039862447783348
1620174244187425800,0.31742578125,-2.410153262525797,1.2668769616156816,1.0930039112657308
1620174244197354000,0.32735400390625,-1.7160732660114764,0.35688013200908897,1.3866492962047456
1620174244207283000,0.337282958984375,-2.5285370653659105,0.8815309058398008,1.7216607107549904
1620174244217210000,0.347210205078125,-3.083760964375734,0.26807138322144747,-0.3906543913170695
1620174244227139000,0.35713916015625,-1.4025614433467388,1.15944622220546,-0.31000878297984596
1620174244237067000,0.36706689453125,-1.117173891404271,0.5995921791769564,-1.6630173831284045
1620174244246995000,0.376994873046875,-2.9354087242513893,-1.0646297574356198,-4.81943675647974
1620174244256923000,0.3869228515625,-3.1537878558039663,1.774362957894802,-6.4381017876625055
1620174244266851000,0.39685107421875,-2.9864082591265437,2.773159476199746,-6.817981394726037
1620174244276779000,0.406779052734375,-2.2732740180522204,3.1884543877765537,-6.512873243269324
1620174244286707000,0.41670703125,-0.12193068166673182,3.383228771857917,-5.516576725086569
1620174244296635000,0.426634765625,2.067478473740816,2.025273655217886,-3.7035239710524674
1620174244306562800,0.436562744140625,2.1876099970310925,3.0394846002757547,-2.4223636325404048
1620174244316491000,0.446490966796875,3.4616929445028304,6.3201125370979305,-2.708340967069566
1620174244326419000,0.4564189453125,4.701962469699978,7.436404384970665,-3.639921559713781
1620174244336347000,0.466346923828125,5.0301902154594655,6.9739102075845,-3.1615602433711287
1620174244346274800,0.47627490234375,4.921074591702222,5.961326571467518,-2.0950112083107233
1620174244356203000,0.486203125,3.941992243170738,4.958039756006002,-2.281124731552601
1620174244366131000,0.496130859375,2.3238784161299466,4.9155654728919265,-1.956048143300414
1620174244376059100,0.50605908203125,1.384401517277956,5.720566681280732,-1.8534353255659342
1620174244385987000,0.515987060546875,2.203926341059804,5.864315811523795,-2.872853191617131
1620174244395915000,0.5259150390625,1.1519400843590497,4.302375999386609,-3.6832349240005016
1620174244405843000,0.535843017578125,0.07300327689051628,2.8543384607613085,-4.001069286039471
1620174244415771000,0.54577099609375,-0.034005145454406735,2.598975167943537,-3.8556191970974205
1620174244425699000,0.555698974609375,0.3044482262432575,2.6208266420066355,-2.67872645778954
1620174244435627000,0.565626953125,0.7567138550817966,2.276645832572877,-1.2062883451402187
1620174244445555000,0.575554931640625,0.7385644504070281,2.7284076035425064,0.215063138872385
1620174244455483000,0.58548291015625,0.8108674700736999,2.674612592729926,1.459443606519699
1620174244465411000,0.5954111328125,1.1463415336996317,1.780581101757288,2.2599819902807474
1620174244475339000,0.605339111328125,0.7186345920562743,0.9581173019140958,2.5853110919892788
1620174244485267000,0.615266845703125,0.24457564908266066,1.0132307018488644,2.8219430885910985
1620174244495195000,0.62519482421875,0.43694238750040526,1.2700287036448716,3.1818636112093923
1620174244505122800,0.635122802734375,-0.20014847833514213,1.4902321280151605,4.5214124258041375
1620174244515051000,0.645051025390625,-0.9087900841653347,1.3448095116019247,5.862136129397154
1620174244524979000,0.65497900390625,-0.9304135946914553,0.938629342111945,6.883666457557678
1620174244534907000,0.664906982421875,-2.1267793884932993,0.43295419464707374,8.108495252516866
1620174244544834800,0.674834716796875,-2.3190333141863344,-0.33737609785497186,9.164858993649482
1620174244554763000,0.684762939453125,-1.4346657236158846,-1.308799456065893,9.55051016985178
1620174244564691000,0.69469091796875,-2.3442010731905696,-0.56576808937788,9.111501497471332
1620174244574619100,0.704619140625,-3.3392885078445076,0.3477373328715563,7.992209883260727
1620174244584547000,0.714547119140625,-3.686062840902805,-0.3370101871520281,7.388142750626802
1620174244594475000,0.72447509765625,-4.282408147113025,-0.9134253427505492,6.552192277222871
1620174244604403000,0.73440283203125,-4.944156192082167,-0.7668634931743145,6.947393372058868
1620174244614331000,0.744330810546875,-4.730887243150175,-0.9338976374149321,7.2489768565207715
1620174244624259000,0.754259033203125,-4.594952293789387,-1.145421496245265,7.964276166674495
1620174244634187000,0.76418701171875,-4.006793801166117,-1.571222896528244,8.760130776533485
1620174244644115000,0.774114990234375,-3.2344249885737892,-1.2964186979204415,9.25393486894071
1620174244654044000,0.7840439453125,-3.4099294395178554,-0.4230114773035049,9.501450078606606
1620174244663971800,0.793971923828125,-2.9296774871230125,-1.3285586340248583,8.614671335241198
1620174244673899800,0.803899658203125,-3.664425009590387,-1.8636124361872672,7.390469147747755
1620174244683828000,0.813827880859375,-4.67683854983747,-2.5088170503735543,5.986048924791812
1620174244693756000,0.823755859375,-6.3529223352879285,-2.1657167296528814,5.272862076747417
1620174244703683800,0.833683837890625,-5.604741915273666,-2.357254031509161,4.661988771229982
1620174244713612000,0.843612060546875,-6.119272569367289,-2.517953712031245,4.518061361810565
1620174244723540000,0.8535400390625,-6.055391925609111,-1.1433873600691555,4.559406933155656
1620174244733468200,0.86346826171875,-3.7275849378585812,0.41845220656394955,3.7416444428712126
1620174244743396000,0.87339599609375,-2.912956069424748,0.23637948314547538,2.6424960375010964
1620174244753324000,0.883323974609375,-2.4415911878407,-1.0596914242506026,1.2909621860802172
1620174244763252000,0.893251953125,-1.8467074786156414,-0.9514391393244266,0.4746604159981012
1620174244773180000,0.903179931640625,-1.2093593500833957,-0.5063748201668262,-0.13753975420892237
1620174244783108000,0.913108154296875,-0.6622801790844649,-1.1939496725708245,-0.5996650982826948
1620174244793036000,0.9230361328125,-0.6476303800284862,-1.9587883819192646,-0.6204395907640456
1620174244802964000,0.9329638671875,-0.41662316450588405,-2.0988468409508467,-1.8199480665057897
1620174244812892000,0.942891845703125,-0.5181903456449508,-2.038121446353197,-3.1514749026864766
1620174244822819800,0.95281982421875,-1.3339502639353273,-2.6853485062777995,-3.3828362654089927
1620174244832748000,0.962748046875,-0.6505722056340426,-2.9428111094623803,-2.7489076629966496
1620174244842676000,0.972676025390625,0.45978725651502605,-3.2309821546435353,-0.7825824558317661
1620174244852604000,0.98260400390625,0.0770924459002912,-4.912877841243148,2.8938503869384524
1620174244862531800,0.99253173828125,0.9810783446542918,-5.274715011137723,5.153641823083162
1620174244872459800,1.002459716796875,3.7736686436414715,-2.921947769653797,5.374828997793793
1620174244882388000,1.012387939453125,4.15418947121799,-1.9497469973295927,4.140434502109885
1620174244892316000,1.02231591796875,3.178220286270976,-2.7361118943095204,2.287304296970367
1620174244902243800,1.032243896484375,1.7181249378442762,-3.277675516757369,1.4374135610193013
1620174244912172000,1.042172119140625,1.4454443072617054,-2.99891118234694,0.7612690341681242
1620174244922099500,1.052099365234375,2.5911563108861446,-1.7790081533521414,-0.294680280944705
1620174244932027400,1.06202734375,4.581668449324369,-0.9054366820842027,-3.4152819064617157
1620174244941955300,1.071955322265625,4.394573513829708,-0.02774257792830467,-7.454395384213328
1620174244951883300,1.08188330078125,2.6875568299770354,2.0127397523373363,-10.357933636951445
1620174244961811200,1.091811279296875,1.1937936052262783,1.561386562168598,-12.00862462247014
1620174244971739400,1.101739501953125,-0.7393683141358196,-2.053027923583984,-10.625440079766511
1620174244981667300,1.111667236328125,-2.530842419698834,-6.400940224003792,-6.81840575761795
1620174244991595300,1.12159521484375,-4.006455070731044,-7.093796816202998,-2.0467612644046542
1620174245001523200,1.131523193359375,-2.428972529286146,-4.291684217241406,1.0118658432364462
1620174245011452200,1.1414521484375,-0.05663154941275716,-0.6179296537697315,3.321939605897665
1620174245021380000,1.151380126953125,1.9492502998538315,2.1425024428039787,5.7119642726302144
1620174245031308300,1.161308349609375,3.2183868769645687,2.2814403733730315,6.780659672069549
1620174245041236500,1.171236572265625,2.676882291227579,0.40901919230818745,6.172549986046552
1620174245051164400,1.181164306640625,1.9532452147088943,-0.8581324945956468,4.9926662482291455
1620174245061092400,1.19109228515625,1.7230356523700057,-1.0207324557811022,3.8185073177993294
1620174245071020300,1.201020263671875,0.9420727605640887,-1.2861843041539192,2.351217089432478
1620174245080948500,1.210948486328125,0.09330825216397642,-1.1973393150091172,1.2864262962162494
1620174245090876400,1.22087646484375,0.46779652157798407,-1.6891496032506226,0.6929939548432826
1620174245100804400,1.230804443359375,-2.557284728683531,-0.4318927028954029,0.16709493451714516
1620174245110732300,1.240732177734375,-0.700899028879404,-0.12134440621137618,-0.38096623325645923
1620174245120660200,1.25066015625,0.8034061942823231,1.536888080728054,-1.7219214075177907
1620174245130588400,1.26058837890625,2.2619239181287587,2.09962308602035,-2.424016952705383
1620174245140516400,1.270516357421875,2.1537731938809155,1.919533060851693,-3.503764492034912
1620174245150444300,1.2804443359375,2.165801777587831,2.658314368879795,-3.764354287329316
1620174245160372200,1.290372314453125,1.9533955829650163,3.5412235773354768,-3.4599043075203895
1620174245170300200,1.300300048828125,0.870170722913742,3.24611776445508,-2.8167753305643797
1620174245180228400,1.310228271484375,1.2309008083492516,2.191532723432779,-2.6791268552839753
1620174245190156300,1.32015625,2.838027961951494,1.4653344181239605,-1.94402628159523
1620174245200084200,1.330084228515625,3.0734628577232357,1.4445949969559908,1.3356190739303826
1620174245210012200,1.34001220703125,2.5752912177562712,0.5057482127010822,1.5854466521918773
1620174245219940000,1.349940185546875,0.9967642087597399,-0.5434405222356319,1.3980097713917492
1620174245229868300,1.359868408203125,-1.1908762564748525,-1.7367098113268613,1.0851689798563717
1620174245239796500,1.36979638671875,-2.3978783028423787,-2.6995056264460087,0.14547405433952806
1620174245249724400,1.379724365234375,-3.8734780943930147,-3.3436803130626678,-0.5472662180036306
1620174245259652400,1.38965234375,-5.280749615126848,-3.886539820539951,-0.9082926560372113
1620174245269580300,1.399580322265625,-4.9476188997566695,-4.5595781980693335,-1.1610469354003667
1620174245279508500,1.409508544921875,-2.970355534470081,-5.059551334500313,-1.1927987489700316
1620174245289436400,1.4194365234375,-0.9394555638030171,-5.566553346654772,-1.3177470248922705
1620174245299364400,1.4293642578125,0.3943253349147737,-6.122006962767243,-1.4702967167064547
1620174245309292300,1.439292236328125,1.3737035976529122,-6.255156957584619,-1.1216191803753375
1620174245319220200,1.44922021484375,1.898293435076624,-5.011691851216554,-0.2648974293604493
1620174245329148400,1.4591484375,1.4654127440571785,-1.1340958001106978,0.9092939420342445
1620174245339076400,1.469076416015625,1.4834065197788178,2.9725498296439645,1.5269382029913365
1620174245349004300,1.47900439453125,1.5006874710559843,6.354210037010907,1.885185093308985
1620174245358932200,1.48893212890625,2.0344355974473056,9.835131413596867,2.2205624185621735
1620174245368860200,1.498860107421875,3.0353964541792866,12.75481357640624,2.5390835938215255
1620174245378788400,1.508788330078125,2.8972376912891864,14.355090717983245,2.6036095497459173
1620174245388716300,1.51871630859375,2.0503766784228383,14.422080433672665,2.5743504297748205
1620174245398645500,1.5286455078125,0.2084802533507347,12.600040363323687,1.8207947464630008
1620174245408573400,1.538573486328125,-1.2831050428390502,7.270238840258121,0.48825961002260443
1620174245418501400,1.54850146484375,-1.2353845296345651,2.2387504016816613,-0.14234362909300252
1620174245428429300,1.55842919921875,-0.7669255986250937,-0.39857144805192946,-0.44717999613732096
1620174245438357200,1.568357177734375,-0.14097031317949293,-2.0806103425145146,-1.0018725647494195
1620174245448285400,1.578285400390625,0.3633282852351665,-2.9540421130508183,-1.3919763364464044
1620174245458213400,1.58821337890625,0.5571545748114586,-3.1159581836253403,-1.4303472758948803
1620174245468141300,1.598141357421875,1.0085000200651586,-2.996956541147828,-1.4344026887655257
1620174245478069200,1.6080693359375,1.2958170787654817,-2.806691743445396,-1.3468968392699956
1620174245487997200,1.6179970703125,1.336715052473545,-2.3884780218124386,-0.9570929273024201
1620174245497925400,1.62792529296875,1.1908332941159605,-1.827159313058853,-0.5718277912756428
1620174245507853300,1.637853271484375,0.7728253241881727,-1.1940689150363206,-0.3321016280507669
1620174245517781200,1.64778125,0.1535854646027088,-0.49752749684453007,-0.15705109488666058
1620174245527709200,1.657709228515625,-0.5311914276458323,0.07753215249180793,0.09610476928101852
1620174245537637000,1.66763720703125,-1.0255180826224386,0.589839869838953,0.5078831789031625
1620174245547565300,1.6775654296875,-1.174757042453438,1.0549906992137432,0.8683078516513109
1620174245557493200,1.6874931640625,-0.9129610862396657,1.1526157916635273,1.0081059061810373
1620174245567421200,1.697421142578125,-0.4114963960766792,0.7200655016422272,0.9930255336880683
1620174245577349000,1.70734912109375,0.08391396248340606,0.30282091730237004,0.9685936877429485
1620174245587277300,1.71727734375,0.36970658809542656,0.052824996736645695,0.9238368466496467
1620174245597205500,1.72720556640625,0.3794109666384756,-0.03585340366959572,0.877986949622631
1620174245607133400,1.737133544921875,0.11130451210364699,-0.04232932168543339,0.78517685623914
1620174245617061400,1.747061279296875,-0.277013106828928,-0.00005611410140991211,0.6160588914617896
1620174245626989300,1.7569892578125,-0.6752385179221629,0.04733692071437835,0.39548634151816364
1620174245636917200,1.766917236328125,-1.020708490383625,0.10754325987398623,0.178755269433558
1620174245646845400,1.776845458984375,-1.2005099078692496,0.20162322706282138,0.008956053526932373
1620174245656773400,1.7867734375,-1.169967470089346,0.2997469166845083,-0.10372485236329958
1620174245666701300,1.796701416015625,-0.9967091906368731,0.3758686178565025,-0.09144143537878989
1620174245676629200,1.806629150390625,-0.8787326534233987,0.39172260507047174,0.017617471488844603
1620174245686557200,1.81655712890625,-0.858362357828766,0.3670943597704172,0.15971943731307983
1620174245696485400,1.8264853515625,-0.8717935018099844,0.30583529668748377,0.3620286008134484
1620174245706413300,1.836413330078125,-0.9239959827341139,0.281651288023591,0.530515866471827
1620174245716341200,1.84634130859375,-1.006463691931963,0.2426040567487478,0.6130550334706902
1620174245726269200,1.856269287109375,-1.112075106960535,0.17704700421094893,0.6995242333948611
1620174245736197000,1.866197021484375,-1.2957413831807671,0.06727087071835994,0.7323825469017028
1620174245746125300,1.876125244140625,-1.5219773657135665,0.01355564714372158,0.7570704864997416
1620174245756053200,1.88605322265625,-1.6652072943881153,-0.014987141251564026,0.807510268600285
1620174245765981200,1.895981201171875,-1.6132764700122177,0.021138065096735954,0.9121980659779161
1620174245775909000,1.9059091796875,-1.469509073460102,0.11902619239687919,1.0192486469641326
1620174245785837300,1.91583740234375,-1.3445909004151821,0.22081191165745256,1.1229235409721732
1620174245795765500,1.925765625,-1.2405448350071906,0.2753086409986019,1.2610060237556695
1620174245805694500,1.935694580078125,-1.1277646973930298,0.3122767279118299,1.417841137804091
1620174245815622400,1.945622314453125,-1.040368153490871,0.3064461220622062,1.5517787758678196
1620174245825550300,1.95555029296875,-0.9948514339409767,0.26119068379700183,1.6735805704578757
1620174245835478300,1.965478271484375,-1.0270622433245182,0.22666823647022247,1.738989446696639
1620174245845406200,1.97540625,-1.0485292481146753,0.30794074453413484,1.761324612623453
1620174245855334400,1.98533447265625,-0.8472818686269223,0.5579489400595427,1.839591509130597
1620174245865262300,1.995262451171875,-0.4354875125169754,0.7953525055557489,1.9629963550031184
1620174245875190300,2.005190185546875,0.030154315245151518,0.9222691589415073,2.024854260762036
1620174245885118200,2.0151181640625,0.43240357502698895,0.909925225675106,1.9699428131401537
1620174245895046100,2.025046142578125,0.6973086031720042,0.8279279104679822,1.7820318850874899
1620174245904974300,2.034974365234375,0.8434531041190028,0.7092740585148334,1.4636404736876487
1620174245914902300,2.04490234375,0.8731294265888631,0.5865203700274229,1.0193070991531015
1620174245924831000,2.0548310546875,0.7828725248195231,0.4198796090185642,0.5054111992990598
1620174245934759000,2.064759033203125,0.5528374422647059,0.29093875632882116,0.09021068800743669
1620174245944686800,2.074686767578125,0.10537409914135933,0.23802725035250186,-0.2653118553802371
1620174245954614800,2.08461474609375,-0.5500805447719991,0.29980595339536664,-0.5984148424932733
1620174245964543000,2.09454296875,-1.2163245859861374,0.41661446974277494,-0.8999944910302757
1620174245974471000,2.104470947265625,-1.561276672053337,0.6224480079770088,-0.8457757018476724
1620174245984398800,2.11439892578125,-1.3488275150716305,0.8644161049097776,-0.08882716122716665
1620174245994326800,2.124326904296875,-0.9992563909016549,0.9941606751978397,0.5786225659823044
1620174246004254700,2.134254638671875,-0.6880326791740954,1.0387386525928974,0.9276862155541777
1620174246014183000,2.144182861328125,-0.5241408515471965,1.0325193396866321,1.0556994320049882
1620174246024110800,2.15411083984375,-0.6003976503409445,1.0038526326507329,1.0450596723079681
1620174246034038800,2.164038818359375,-0.8039385475933551,0.8750205010324716,0.8881444787606596
1620174246043966700,2.173966796875,-1.0049310024719684,0.702756639444828,0.686846245868504
1620174246053894700,2.183894775390625,-1.107893364296481,0.5779390041649342,0.5491147319471463
1620174246063822800,2.19382275390625,-1.067624555337429,0.5211708227604628,0.49224137313514943
1620174246073750800,2.203750732421875,-0.8375953180015087,0.493847931548953,0.5737977031091228
1620174246083678700,2.2136787109375,-0.47496378285884855,0.4476251095563173,0.6754254187963903
1620174246093606700,2.223606689453125,-0.0942342809677124,0.4578279391407966,0.805895965271443
1620174246103534600,2.23353466796875,0.28626375025510786,0.48233168127834797,0.9174880621448158
1620174246113462800,2.243462890625,0.6237725345790386,0.4891571433842182,0.969023238266632
1620174246123391000,2.253390869140625,0.8595902921885251,0.4963894327253103,1.0202386809147894
1620174246133319000,2.26331884765625,1.0184545739769935,0.48314007505178447,1.000642730693519
1620174246143246800,2.273246826171875,1.078568558678031,0.4852303253293037,0.9774610309399664
1620174246153174800,2.2831748046875,1.042159201626107,0.5619383019566535,0.9513308566443621
1620174246163103000,2.29310302734375,1.0039636918097734,0.5836065284073353,0.8828883117981254
1620174246173031000,2.303031005859375,0.9993758525628595,0.5401256985992193,0.8166314404278993
1620174246182958800,2.312958740234375,1.0193903935223818,0.4270107760727405,0.8452170450516044
1620174246192886800,2.32288671875,1.0538707552731037,0.25578560988307,0.9098409083925187
1620174246202815700,2.332815673828125,1.0609018960189074,0.08000000391006469,0.9887620310246944
1620174246212743700,2.34274365234375,1.134523524003476,-0.06272036780714989,1.0680470185332
1620174246222672000,2.352671875,1.2997783836118877,-0.17990414720773695,1.0744375963531434
1620174246232599800,2.362599853515625,1.5131769502729178,-0.3134200527280569,1.080422808242589
1620174246242527700,2.37252783203125,1.6306450995728372,-0.4168254821449518,0.9915531230479478
1620174246252455700,2.38245556640625,1.6729057399362324,-0.41344577657878395,0.6848162013456225
1620174246262383600,2.392383544921875,1.6311965959757566,-0.22057284220457077,0.2678895969137549
1620174246272311800,2.402311767578125,1.5648158059649169,0.020117489877343176,-0.18755391304222865
1620174246282240000,2.412239990234375,1.4452613519102333,0.23671675227582453,-0.6411996163286269
1620174246292168000,2.42216796875,1.261001347580552,0.38808395630717274,-1.0491598011031746
1620174246302096000,2.432095947265625,1.0867841599680483,0.45718671862781046,-1.400035724261403
1620174246312023800,2.44202392578125,0.9016988107301295,0.4549959305852651,-1.6858930856727063
1620174246321951700,2.45195166015625,0.6650035396337509,0.2942313681334257,-1.9591478628814218
1620174246331880000,2.4618798828125,0.4782932195425033,-0.038383214408159255,-2.191134079504013
1620174246341807900,2.471807861328125,0.4395362033858895,-0.3593032675027847,-2.4599916446670886
1620174246351735800,2.48173583984375,0.44259851356595753,-0.6500251662105322,-2.7620994452640413
1620174246361663700,2.491663818359375,0.5985685352176427,-0.8412567631185054,-3.025101562397182
1620174246371591700,2.501591796875,0.6496241841942072,-0.8278606904506682,-2.586535957609117
1620174246381520000,2.511519775390625,0.5760024831444025,-0.7202338439464568,-1.8469922869063913
1620174246391447800,2.52144775390625,0.45593438047915696,-0.5825239938676356,-1.205400894781202
1620174246401375700,2.531375732421875,0.4126837061651051,-0.4995335759699344,-0.7369163909390568
1620174246411303700,2.5413037109375,0.5459203563526273,-0.47756782787740226,-0.38230234069842844
1620174246421231900,2.55123193359375,0.8085822817459702,-0.44343116499781604,-0.1269537705257535
1620174246431159800,2.561159912109375,1.0768028641797602,-0.4174094195127487,-0.015952629849431105
1620174246441087700,2.571087646484375,1.303522538576275,-0.5049935949414969,0.0467509694860084
1620174246451015700,2.581015625,1.3020610877215861,-0.666817895579338,0.03646978200227022
1620174246460943600,2.590943603515625,1.1748235318183897,-0.8259779454439878,-0.00669020008733496
1620174246470871800,2.600871826171875,1.0504261677771807,-0.8889911587178707,-0.08605786091061308
1620174246480800000,2.610800048828125,0.8506503221467137,-0.900702639299631,-0.1593991558501497
1620174246490728000,2.62072802734375,0.6465989911541342,-0.921048092713952,-0.1839651130363345
1620174246500655900,2.63065576171875,0.5798255485638976,-0.9191559953570365,-0.2310950399365276
1620174246510583800,2.640583740234375,0.617289017778635,-0.9377665878027677,-0.35171843839697536
1620174246520511700,2.65051171875,0.6372691450119018,-0.95322310013175,-0.48973227639105166
1620174246530440000,2.66043994140625,0.4335129975736141,-0.9399106140941381,-0.6260542157754302
1620174246540368000,2.670367919921875,-0.08130202641934156,-0.8186556397318839,-0.787211576937139
1620174246550295800,2.6802958984375,-0.6856234260752797,-0.505567595437169,-0.8902093023359775
1620174246560223700,2.6902236328125,-1.1388149375870824,-0.06759820297658443,-0.8542853176482021
1620174246570151700,2.700151611328125,-1.1747688790217041,0.3771463827073574,-0.7109292783759534
1620174246580080600,2.71008056640625,-0.8455991762369871,0.6574181990712881,-0.5623488555189222
1620174246590008800,2.7200087890625,-0.45629356918036934,0.6290466755896806,-0.4337356273483485
1620174246599936800,2.729936767578125,-0.30339257971048356,0.4115145162552595,-0.25746488647321236
1620174246609864700,2.73986474609375,-0.336260537828505,0.1403366914510727,-0.04733365104505792
1620174246619792600,2.749792724609375,-0.35935675125569105,-0.22245208007991313,0.21429732386535033
1620174246629720600,2.759720458984375,-0.3052738634124398,-0.6581096884667873,0.512044645964168
1620174246639649000,2.76964892578125,-0.2066273189604282,-0.9733049341738224,0.811977915533632
1620174246649577000,2.779576904296875,-0.12693565034717322,-1.1421318070501087,1.0446054987996816
1620174246659505000,2.7895048828125,-0.1761374881505966,-1.1014040753424168,1.0953198600579053
1620174246669432800,2.799432861328125,-0.23572584154233336,-0.8417296413272619,0.8155304934486747
1620174246679360800,2.80936083984375,-0.2721567528389394,-0.4777876081079244,0.3574043020136654
1620174246689289000,2.8192890625,-0.23207900947257876,-0.16233108111619948,-0.07784907295387238
1620174246699217000,2.829216796875,-0.3641670741468668,0.034979543444514274,-0.42528004328999663
1620174246709144800,2.839144775390625,-0.7646662753909825,0.03317804698050022,-0.5436552974974737
1620174246719072800,2.84907275390625,-0.9767635501950979,-0.21151567552387712,-0.39448648029323663
1620174246729000700,2.859000732421875,-0.8557001528821885,-0.6232406196594238,-0.09965586762502789
1620174246738929000,2.868928955078125,-0.6824082634210586,-1.0175812982738017,0.034438678033463656
1620174246748856800,2.87885693359375,-0.5521478525653482,-1.282430504578352,-0.04721077358406037
1620174246758784800,2.88878466796875,-0.5296712323412299,-1.3305728964567183,-0.27107633719109
1620174246768712700,2.898712646484375,-0.6172922326490282,-1.2018705286979674,-0.45271618561763316
1620174246778640600,2.908640625,-0.7726973138943314,-0.9920476285666227,-0.47750203263219443
1620174246788568800,2.91856884765625,-0.9646601476863026,-0.7478489961028099,-0.3431908485483378
1620174246798496800,2.928496826171875,-1.0272735479876398,-0.5228840564191342,-0.15128222916163503
1620174246808424700,2.9384248046875,-0.9068822047173977,-0.3095364892929792,0.015344722517579793
1620174246818352600,2.9483525390625,-0.7845761138670146,-0.020547113466262815,0.012530468814447521
1620174246828280600,2.958280517578125,-0.7127769520692527,0.4848685062795877,-0.2255762399824336
1620174246838209000,2.968208984375,-0.6064097502373158,1.2130348967909812,-0.6392544736102223
1620174246848137000,2.978136962890625,-0.5764933354012668,2.1027835958778858,-1.1058091784335673
1620174246858065000,2.98806494140625,-0.6266920752875507,3.0109032334357497,-1.514933146290481
1620174246867992800,2.997992919921875,-0.822507785115391,3.6235616688042875,-1.8144000769898294
1620174246877920800,3.007920654296875,-1.3402166308537125,3.708989542981982,-2.1413607254229485
1620174246887849000,3.017848876953125,-1.7317353839151561,3.189991972607374,-2.133617417819798
1620174246897777000,3.02777685546875,-1.7153491895206272,2.4611598116636273,-1.2435716354824602
1620174246907704800,3.037704833984375,-1.8534889554493128,1.4912076950490474,0.027224728066660462
1620174246917632800,3.0476328125,-1.9468774332426488,0.2869277671217918,0.944310310357809
1620174246927560400,3.057560546875,-1.6196816608794034,-0.8823176723033189,1.4201035297781228
1620174246937488600,3.067488525390625,-0.8245338841155171,-1.675817827990651,1.5500747484289108
1620174246947416600,3.07741650390625,0.12945757004022598,-2.1023118867129087,1.3552556484229863
1620174246957345500,3.087345458984375,0.661003802473098,-2.30188402646482,0.9725712130717933
1620174246967273500,3.0972734375,0.6539269228894263,-2.2336960409015414,0.684124931145832
1620174246977201400,3.107201416015625,0.5151309580743313,-1.764530715188384,0.5996900865934789
1620174246987129300,3.11712939453125,0.2884405097723007,-0.8408703941494226,0.49544784102626144
1620174246997057500,3.1270576171875,-0.11959142506420611,0.28553309789299963,0.1467641124163754
1620174247006985700,3.13698583984375,-0.44788997103758155,1.2403981200128793,-0.31667478020768614
1620174247016913700,3.14691357421875,-0.4697760780226439,1.6230173811733721,-0.7422676888391375
1620174247026841600,3.156841552734375,-0.2524402449779212,1.2606740153223275,-1.0747528728473932
1620174247036769500,3.16676953125,-0.0813286221653223,0.504040239739418,-1.2572364420890807
1620174247046697700,3.17669775390625,0.027839535496756433,-0.23465923522412777,-1.3727718697607516
1620174247056625700,3.186625732421875,0.1756067422747612,-0.7949076843976974,-1.2560823036178945
1620174247066553600,3.1965537109375,0.5442249506115913,-1.145072536677122,-0.9895310426358133
1620174247076481500,3.2064814453125,1.180685117328167,-1.2921774070888756,-0.9077028734505176
1620174247086409500,3.216409423828125,1.7814543774604796,-1.2991910852432251,-0.9303797654870897
1620174247096337700,3.226337646484375,2.117867767763138,-1.186354395136237,-1.003173710475862
1620174247106265600,3.236265625,2.257359825083613,-0.9741203422099352,-0.9983294853150844
1620174247116193500,3.246193603515625,2.2806886782228943,-0.6653273647606373,-0.9024760056477039
1620174247126121500,3.25612158203125,2.235636653575301,-0.29226503649652,-0.6770641259141266
1620174247136049400,3.26604931640625,2.0793816775023934,0.10349836839735507,-0.3548054446268826
1620174247145977600,3.2759775390625,1.7941314882040023,0.4715811546832323,0.01656558781573549
1620174247155905500,3.285905517578125,1.303083416506648,0.7226514264822006,0.46519459545128045
1620174247165833500,3.29583349609375,0.6715431705355643,0.7908738988369702,0.9197747117772698
1620174247175761400,3.305761474609375,0.18867314459681508,0.7760171059668064,1.2646626465670763
1620174247185689300,3.315689453125,0.03454643099056556,0.7467652925193309,1.4245987953707575
1620174247195617500,3.325617431640625,0.1415758961235173,0.6824515180408954,1.486598155426979
1620174247205545700,3.335545654296875,0.2481365747009404,0.5756506009668112,1.436139449430257
1620174247215473700,3.3454736328125,0.3586240530669689,0.4685252742439508,1.239850423002243
1620174247225401600,3.355401611328125,0.39944238566756246,0.2678741070836782,0.9803633282527326
1620174247235329500,3.36532958984375,0.19473693814780563,0.01263502516746521,0.8507781863100826
1620174247245257700,3.3752578125,0.04109305788874626,-0.21794541631042957,0.7243675096850842
1620174247255185700,3.385185546875,0.10122165563702583,-0.3685527418851852,0.5379781651765108
1620174247265113600,3.395113525390625,0.1904466570753604,-0.4280693452149629,0.3158611622698605
1620174247275041500,3.40504150390625,0.2408007701864466,-0.41866263444423674,0.09116355001917108
1620174247284969500,3.414969482421875,0.2530815750887617,-0.38183191017508505,-0.10345978995263576
1620174247294897700,3.424897705078125,0.21951836471557615,-0.346437940710783,-0.24916865769503638
1620174247304825600,3.43482568359375,0.2178349051406607,-0.24586510437130926,-0.24990747509729117
1620174247314753500,3.44475341796875,0.2676970700163394,-0.11339081685841083,-0.15218418297003955
1620174247324682500,3.4546826171875,0.3530396039981395,-0.004648118066787719,0.0459944931294769
1620174247334610400,3.4646103515625,0.4133412202257663,0.06986322529911995,0.2193836689526215
1620174247344538400,3.474538330078125,0.36593181879706677,0.041487025642395016,0.24220205181911586
1620174247354466600,3.484466552734375,0.14746084424257278,-0.025185294660925863,0.1727921049791388
1620174247364394800,3.494394775390625,-0.14334931727051733,-0.07730418895483017,0.0393637864107266
1620174247374322700,3.50432275390625,-0.3800163121204823,-0.07170622281730174,-0.0943190183754079
1620174247384250600,3.514250732421875,-0.4629904364705085,-0.014586159235239027,-0.263027233308088
1620174247394178600,3.524178466796875,-0.45446467325277623,0.015000585255026816,-0.41957671708185224
1620174247404106500,3.5341064453125,-0.5387959843654185,-0.0006172551155090331,-0.5477389500819146
1620174247414034700,3.54403466796875,-0.6497603777945041,-0.018741525349020956,-0.6099579442381858
1620174247423962600,3.553962646484375,-0.6883587693233043,-0.03642974225282669,-0.5461836834639311
1620174247433890600,3.563890625,-0.6439444580573588,0.01136661266684532,-0.4145774840224534
1620174247443818500,3.573818603515625,-0.5798411114592105,0.06520984653532505,-0.2768550301903859
1620174247453746400,3.583746337890625,-0.47458282071724534,0.1024035588979721,-0.12319100219244136
1620174247463674600,3.593674560546875,-0.439610876057297,0.13284078273773192,0.06622718861801549
1620174247473602600,3.6036025390625,-0.51992637565732,0.138467390447855,0.24681882489956913
1620174247483530500,3.613530517578125,-0.5288216297745705,0.12083587216734885,0.40723972501289096
1620174247493458400,3.62345849609375,-0.44805020310059185,0.1205816051453352,0.5299640778079628
1620174247503386600,3.63338671875,-0.4044038074672222,0.15157120217084885,0.6035363867580891
1620174247513314600,3.643314453125,-0.3759736856661737,0.1569061334580183,0.6599889263421297
1620174247523242500,3.653242431640625,-0.37381943024173375,0.16769231588840483,0.7026702763356268
1620174247533170400,3.66317041015625,-0.4144871023252606,0.19698329230248926,0.6693436877299099
1620174247543098400,3.673098388671875,-0.504587498358637,0.24577450347840785,0.5969503594312816
1620174247553026600,3.683026611328125,-0.6532163634672761,0.2939075430065393,0.5404135025646537
1620174247562954800,3.692954833984375,-0.8566789347864687,0.3518903608977794,0.4687075354756787
1620174247572882700,3.702882568359375,-1.0273042353868485,0.3753337803274393,0.3713359063303098
1620174247582810600,3.712810546875,-0.9325345323681831,0.3581196106761694,0.41982550421115006
1620174247592738600,3.722738525390625,-0.7686207121051848,0.343444604113698,0.44449693106580523
1620174247602666500,3.73266650390625,-0.6718661188796162,0.33582185415029525,0.3782014447182417
1620174247612594700,3.7425947265625,-0.5998388474144041,0.30609657797217366,0.3678155867170542
1620174247622522600,3.752522705078125,-0.5739208545647562,0.29143559993505475,0.5008893379604443
1620174247632450600,3.762450439453125,-0.5919232519842684,0.2589998957544565,0.6132572049792856
1620174247642378500,3.77237841796875,-0.6801999397218227,0.18433599217534063,0.6777659905731678
1620174247652306400,3.782306396484375,-0.8256907990656792,0.08229016067385674,0.6852839649878442
1620174247662234600,3.792234619140625,-0.9450820253826677,-0.027139351338148116,0.6809089647740125
1620174247672162600,3.80216259765625,-1.0518483095347881,-0.16417057150304318,0.7275346684791147
1620174247682091500,3.812091552734375,-1.1273453029371798,-0.307867679297924,0.8275961212303489
1620174247692019500,3.82201953125,-1.0817813832446932,-0.30281331851780413,1.0619044971901923
1620174247701947400,3.831947509765625,-1.0200628859564662,-0.26147300786972044,1.1614206640835851
1620174247711875300,3.841875244140625,-1.0270349169261752,-0.15138064803481102,1.155678686365485
1620174247721803800,3.8518037109375,-0.9660647537872195,0.14328677342832088,1.246857379154861
1620174247731731700,3.861731689453125,-0.7251908818319439,0.6379366690099239,1.4304118655636906
1620174247741659600,3.87165966796875,-0.28949235691279174,1.3194026831448078,1.664003179295361
1620174247751587600,3.881587646484375,0.11368936141356825,1.9897750563353298,1.924665455304086
1620174247761515500,3.891515625,0.2130567674860358,2.5733476824730634,2.0995739861816167
1620174247771443700,3.901443603515625,-0.13099734682813285,2.8971137726485727,2.111938377714157
1620174247781371600,3.91137158203125,-0.7200412439838051,2.7787346459835764,1.8420035387083886
1620174247791299600,3.921299560546875,-1.0249044807687402,2.3500123898178336,1.4879320343792437
1620174247801227500,3.9312275390625,-0.9830828163444996,1.8447335481941698,1.265549366273731
1620174247811155500,3.941155517578125,-0.9903352716907858,1.3914993665844202,1.1079255860656498
1620174247821083600,3.951083740234375,-1.1726780442222953,1.0503928500294686,0.791709399813041
1620174247831011600,3.961011474609375,-1.3925053287565707,0.7880950817734003,0.28310623607225716
1620174247840939500,3.970939453125,-1.4240785708889365,0.6626040772765874,-0.347632922649011
1620174247850867500,3.980867431640625,-1.1910869766160845,0.619390958493948,-0.9376762061055749
1620174247860793600,3.990793701171875,-0.7877741792559623,0.5597773245304822,-1.4354565817326306
1620174247870721500,4.000721435546875,-0.46280806564092636,0.3719435533672571,-1.7865569612964987
1620174247880649500,4.0106494140625,-0.5474224314786493,0.04158464079797268,-1.9375640998438
1620174247890577700,4.02057763671875,-0.8678421338357031,-0.32154256890714167,-1.9033456038996577
1620174247900505600,4.030505615234375,-0.9632979194223881,-0.5762666870385408,-1.6943816586852072
1620174247910433500,4.04043359375,-0.7033391155079006,-0.5894803888767958,-1.0676811808954925
1620174247920361500,4.050361572265625,-0.30155842308588326,-0.47005204541981216,-0.4040277406964451
1620174247930289700,4.06028955078125,0.09679331780076027,-0.3797609491199255,0.04953793788999319
1620174247940217900,4.0702177734375,0.45916181809306145,-0.29617957959175106,0.25362923556677996
1620174247950145800,4.080145751953125,0.7668984914224595,-0.2366957094877958,0.24011742756478488
1620174247960073700,4.09007373046875,0.9728465959470719,-0.12434475707113742,0.06763057087622583
1620174247970001700,4.100001708984375,1.0595230088811367,0.0394312621563673,-0.15532127541936933
1620174247979929600,4.1099296875,1.076640220963955,0.2717091552019119,-0.3358020534712821
1620174247989857800,4.11985791015625,1.0620926401734352,0.5660334623157978,-0.4763056259218603
1620174247999785700,4.12978564453125,0.9876794964849949,0.815438431251049,-0.5629372498661279
1620174248009713700,4.139713623046875,0.8702642464160919,1.019158338332176,-0.6040374681480228
1620174248019642600,4.149642578125,0.6624187838375568,1.1044926890075206,-0.5997760113112628
1620174248029569500,4.159569580078125,0.3654512687385082,1.105834751266241,-0.5440046589244156
1620174248039498500,4.16949853515625,0.07534483504798263,0.9946206939250231,-0.4990898507904261
1620174248049426700,4.1794267578125,-0.18893676396906375,0.7572124522536993,-0.451928725034371
1620174248059355000,4.18935498046875,-0.37479539913441984,0.42533787442445753,-0.4068323132557794
1620174248069282800,4.19928271484375,-0.43657764584124087,0.029104513931274414,-0.32782683680839836
1620174248079210800,4.209210693359375,-0.33043544840421524,-0.30516368103623387,-0.21856117358859628
1620174248089138700,4.219138671875,-0.12887414412908255,-0.4976104989528656,-0.02982124736588448
1620174248099066600,4.229066650390625,0.016592165295407173,-0.5314841269820928,0.1982067331502214
1620174248108994800,4.238994873046875,0.19839841979742048,-0.5554354959338903,0.2812393462218344
1620174248118922800,4.2489228515625,0.3616723347216844,-0.43316345348358154,0.28974523569531735
1620174248128850700,4.2588505859375,0.474864487202838,-0.16716390810012816,0.22357189615638925
1620174248138778600,4.268778564453125,0.5867215186227113,0.09028934273421764,0.05748657707320526
1620174248148706600,4.27870654296875,0.6418482894957065,0.25964696148633953,-0.20523140762262046
1620174248158634800,4.288634765625,0.6921458135813474,0.36485564093291756,-0.5125274975776672
1620174248168562700,4.298562744140625,0.821620919278264,0.36071897951960563,-0.8239904979538172
1620174248178490600,4.30849072265625,0.9909212548851967,0.24805764597952365,-1.0737135929275303
1620174248188418600,4.31841845703125,1.1278199347116054,0.04099368916749954,-1.2991316101409494
1620174248198346500,4.328346435546875,1.233150486972183,-0.22168694092631339,-1.4819764869756995
1620174248208274700,4.338274658203125,1.1839520101696253,-0.423462728202343,-1.5337291783057152
1620174248218202600,4.34820263671875,1.0079169594801962,-0.5523112264335155,-1.4822129260800778
1620174248228130600,4.358130615234375,0.8246032960899173,-0.47739539391994473,-1.2651843323536216
1620174248238058500,4.36805859375,0.6586299129486084,-0.2782984704643488,-0.910880699769035
1620174248247986700,4.377986572265625,0.46356005305200815,-0.07915127812623977,-0.5551443675002082
1620174248257915000,4.387914794921875,0.3808861537575722,0.11326572917401789,-0.2839765891660005
1620174248267842800,4.3978427734375,0.30132483352571726,0.2631435714304447,-0.07294766511260531
1620174248277770800,4.407770751953125,0.21513678863048552,0.386231606438756,0.08274820663966238
1620174248287698700,4.41769873046875,0.19215514149367807,0.3829799111664295,0.15300916255209593
1620174248297626600,4.427626708984375,0.1956441526532173,0.2916717467784881,0.18986253704447298
1620174248307554800,4.437554931640625,0.1931812696710229,0.14889993713498115,0.16732636865284292
1620174248317482800,4.447482666015625,0.3219078950881958,-0.09858546191453933,0.09052375427829101
1620174248327410700,4.45741064453125,0.4754170795843005,-0.37275311618447304,0.021016648940462616
1620174248337338600,4.467338623046875,0.5928504498317837,-0.6785200238108634,-0.16375707706501708
1620174248347266600,4.4772666015625,0.6293626096710563,-0.9738976393699645,-0.2919133552483283
1620174248357194800,4.48719482421875,0.8339528698459268,-1.2645312752723694,-0.44311450026407834
1620174248367123700,4.497123779296875,1.0280836953267454,-1.4841086766988039,-0.5535133322322741
1620174248377051600,4.5070517578125,1.0737409923911094,-1.588887732556462,-0.6590135054387152
1620174248386979600,4.5169794921875,1.078533195103705,-1.5639502751767635,-0.7084335891027003
1620174248396907500,4.526907470703125,1.1128764864712952,-1.5181009626716375,-0.7094372131872921
1620174248406835700,4.536835693359375,1.105905770675838,-1.5158341867834328,-0.6925308673761784
1620174248416764000,4.546763916015625,1.1018328221485019,-1.5060399379998444,-0.712183735416457
1620174248426691800,4.55669189453125,1.1075362944871188,-1.540425607204437,-0.7564514778185636
1620174248436619800,4.566619873046875,0.948937385636568,-1.5228654005944728,-0.7619844889611005
1620174248446547700,4.576547607421875,0.653436435958743,-1.4224059615015983,-0.7992300776414573
1620174248456475600,4.5864755859375,0.36968759113401173,-1.2633470339238644,-0.7999549578499049
1620174248466403800,4.59640380859375,0.12859598477482795,-1.0606669912844895,-0.7763104628901928
1620174248476331800,4.606331787109375,-0.14954466477930545,-0.8060369811773299,-0.6815943897549063
1620174248486259700,4.616259765625,-0.5486158790469169,-0.539245993155241,-0.519710102558136
1620174248496188700,4.626188720703125,-0.9249708191156387,-0.23699381565153596,-0.334442053697072
1620174248506116600,4.63611669921875,-1.1081240312471985,-0.03447627009749412,-0.17805640044920146
1620174248516044500,4.64604443359375,-1.2738415399312972,0.05409925445616245,-0.09829122820831834
1620174248525972500,4.655972412109375,-1.4725081091456114,0.00784136115014553,-0.09888458185843191
1620174248535900700,4.665900634765625,-1.5348042601913212,-0.12387187886238098,-0.14613785201050342
1620174248545828600,4.67582861328125,-1.4721215940460561,-0.2632838566839695,-0.20308166397651656
1620174248555756500,4.685756591796875,-1.3222791153639555,-0.41122108626663684,-0.2537098995875567
1620174248565684700,4.695684814453125,-1.0754967500172554,-0.5635995131671429,-0.2982174238285981
1620174248575612700,4.70561279296875,-0.7979512898772955,-0.6525111378073692,-0.29204101848229763
1620174248585540900,4.715540771484375,-0.5832265891790389,-0.6431161174744368,-0.23865071601308882
1620174248595468800,4.72546875,-0.3628209202349186,-0.5612298614263534,-0.19701836361587047
1620174248605396700,4.735396728515625,-0.08269976438805461,-0.4720955339461565,-0.22418005464999005
1620174248615324700,4.74532470703125,0.12607435734272002,-0.4621306047707796,-0.41423897278308863
1620174248625252600,4.755252685546875,0.18000190849378703,-0.5147065951824188,-0.7791249357890337
1620174248635180800,4.765180908203125,0.07231719432249664,-0.6072182901412249,-1.2086829851917922
1620174248645108700,4.775108642578125,0.012248656198382377,-0.6396551633656025,-1.5493278755843638
1620174248655036700,4.78503662109375,-0.016843290512263773,-0.28257366356551644,-1.787844224628061
1620174248664964600,4.794964599609375,-0.2220462757579982,0.6886585559874773,-2.0344836743727326
1620174248674892500,4.804892578125,0.05465104312002658,2.046481862941384,-2.16423701248914
1620174248684820700,4.81482080078125,0.8996059301041066,3.2863246871590612,-2.1793352128997445
1620174248694749700,4.824749755859375,1.245770899092406,3.970407605794072,-2.3492774996720254
1620174248704677600,4.834677734375,0.5056932676434517,4.091847289073467,-2.577604755395651
1620174248714605600,4.84460546875,-0.8061360576376319,3.830910287776589,-2.3711390567377206
1620174248724533800,4.85453369140625,-1.774426378519833,3.6076200033068653,-0.9105249451339245
1620174248734461700,4.864461669921875,-2.2797207099735735,3.695580026310682,0.664972048516944
1620174248744390000,4.874389892578125,-2.2264913702197373,3.5983290278702973,1.3886115361884235
1620174248754317800,4.88431787109375,-1.3784610213130712,2.1617671152442695,1.184621872255206
1620174248764245800,4.894245849609375,-0.36634149557650086,-0.2537199095249176,0.399134123435989
1620174248774173700,4.904173583984375,0.3015630261957645,-2.138078196620941,-0.06196253517717123
1620174248784101600,4.9141015625,0.9486229859251528,-3.3328725033223625,-0.19653675411138682
1620174248794029800,4.92402978515625,1.7800088548272848,-3.8893665683984753,-0.21392719364501533
1620174248803957800,4.933957763671875,2.652696528998017,-3.8623593190073966,-0.21053766080457717
1620174248813885700,4.9438857421875,3.3775451732635497,-3.3512884499788282,-0.1900942269084975
1620174248823813600,4.953813720703125,3.447327150020003,-2.328266421955824,-0.06830664350688458
1620174248833741600,4.963741455078125,2.857895860981941,-0.867932588598132,0.30862711936309933
1620174248843669800,4.973669677734375,2.1962200044661757,0.4324696260005235,0.834491214506328
1620174248853597700,4.98359765625,1.7183599156439304,1.3725035742133855,1.3702601792007685
1620174248863525600,4.993525634765625,1.2832511733114718,1.9140654430955648,1.8401808533258734
1620174248873453600,5.00345361328125,0.6975298447072505,1.9699872368037699,2.258945632970333
1620174248883381500,5.013381591796875,-0.12632975687589496,1.5925672978520393,2.5423475640535353
1620174248893309700,5.023309814453125,-0.9191349525690078,1.2045610829561948,2.503171737962961
1620174248903237600,5.033237548828125,-1.3858259971231222,0.886478299114108,1.8881670317292212
1620174248913165600,5.04316552734375,-1.2079220838218927,0.6029203006863594,0.8412146044772117
1620174248923094000,5.053093994140625,-0.42264556660056113,0.3113467535853386,-0.22486980874612927
1620174248933022000,5.06302197265625,0.5440285512566566,0.005289923101663589,-1.0116128183234483
1620174248942950000,5.072949951171875,1.3011989179342984,-0.334572730872035,-1.5097905227050183
1620174248952878000,5.082878173828125,1.6988760474950073,-0.6431126103430986,-1.7754399394765494
1620174248962806000,5.092805908203125,1.8020155194520948,-0.8059732682913542,-1.7567054283902048
1620174248972734000,5.10273388671875,1.8135703481674192,-0.8452110537022351,-1.3756024170115588
1620174248982662000,5.112661865234375,1.7227753939986228,-0.7643459573954343,-0.7877264676567166
1620174248992589800,5.12258984375,1.493162920770049,-0.5743307505398988,-0.23389117346107957
1620174249002518000,5.13251806640625,1.1131740081131458,-0.3305471286177635,0.19382161340117454
1620174249012446000,5.142446044921875,0.704409082826972,-0.1088216092467308,0.5167263740396126
1620174249022375000,5.152375,0.2936819175571203,0.07304010176956653,0.7422000304304063
1620174249032302800,5.162302734375,-0.08335167069183662,0.2727022578924894,0.9115297382622957
1620174249042230800,5.172230712890625,-0.3655395315438509,0.438205539304018,1.0733318270683287
1620174249052158700,5.18215869140625,-0.5261673158735036,0.5559311704963446,1.1135902607638388
1620174249062087000,5.1920869140625,-0.4285170889824629,0.6947369991183281,0.9874477335557341
1620174249072014800,5.202014892578125,-0.09407353744804858,0.6994821478188038,0.7482559694685041
1620174249081943000,5.211943115234375,0.27817688991129397,0.5303758734792471,0.29282159266704694
1620174249091871000,5.22187109375,0.44625674381256103,0.2607815184742212,-0.1976096623062156
1620174249101799000,5.231798828125,0.4599111751556396,0.03634732466638088,-0.5588567025542259
1620174249111727000,5.24172705078125,0.38209026885032654,-0.07601765627563,-0.8003520674087107
1620174249121655000,5.251655029296875,0.32248189558386803,-0.06643383537232875,-1.0032193031832575
1620174249131583000,5.2615830078125,0.3298597308754921,-0.06448971556723117,-1.1487878308732062
1620174249141511000,5.271510986328125,0.29466566789746285,-0.1417313606798649,-1.168639363290742
1620174249151438800,5.28143896484375,0.19936520073665304,-0.2719803733587265,-0.9731962861675768
1620174249161367000,5.291366943359375,0.0672363747937139,-0.3498836972504854,-0.5457751757282764
1620174249171295000,5.301294921875,-0.044631771675217896,-0.25420564721524713,0.0063968066313304
1620174249181223000,5.311222900390625,-0.13752515942798926,-0.06601122604608535,0.5945991201300174
1620174249191150800,5.32115087890625,-0.193895244892966,0.11369184563159943,1.0918151398725806
1620174249201078800,5.331078857421875,-0.22603110761046408,0.23351357232034206,1.35334177762568
1620174249211007000,5.341007080078125,-0.15256485285069793,0.3316039441943168,1.4705793330401182
1620174249220935000,5.350934814453125,0.0796727081844583,0.33776071325838564,1.4802788892775773
1620174249230862800,5.36086279296875,0.4958370595395565,0.2779793215125799,1.405759362605214
1620174249240790800,5.370790771484375,0.9093921417117118,0.11765198143422603,1.293155166079849
1620174249250718700,5.38071875,1.1401391719281673,-0.12410919474959373,1.2222191239174454
1620174249260647000,5.39064697265625,1.1236989092588423,-0.3550637302368879,1.138126224670559
1620174249270575000,5.4005751953125,0.912556743222475,-0.49329322027564043,1.0843149933755398
1620174249280503000,5.4105029296875,0.5147966115534305,-0.5091232420921326,0.8943181258942932
1620174249290431000,5.420430908203125,0.08520809394717216,-0.4411906925946474,0.6143370361052454
1620174249300359000,5.43035888671875,-0.14301029457449912,-0.29872926407456396,0.35083588340878485
1620174249310287000,5.440287109375,-0.0022668124208226796,-0.14482348147630691,0.1499800787881948
1620174249320215000,5.450215087890625,0.3339630745410919,-0.01239887832403183,0.03233984259068966
1620174249330143000,5.46014306640625,0.6275006151914596,0.07023731930851936,-0.058393882910162204
1620174249340071000,5.47007080078125,0.7349626265227794,0.03990004871189594,-0.16652575632706285
1620174249349999900,5.479999755859375,0.5873989064276218,-0.10538052888214587,-0.25717932926379145
1620174249359927800,5.489927734375,0.3307329700460657,-0.25290099435746666,-0.33183884892873466
1620174249369856000,5.49985595703125,0.13772263649515806,-0.3537830427765846,-0.3706791594546288
1620174249379784000,5.509783935546875,0.058648515258356924,-0.3863262989848852,-0.4054806429184973
1620174249389712000,5.5197119140625,0.024785993145033717,-0.3230821995645761,-0.4172839665021747
1620174249399639800,5.529639892578125,-0.044540567994117736,-0.18854805691242216,-0.44590398485213517
1620174249409567700,5.539567626953125,-0.1725953585643321,-0.01631809759438038,-0.4627040938097983
1620174249419496000,5.549495849609375,-0.3446807948451489,0.1661561923623085,-0.42863311657756564
1620174249429423900,5.559423828125,-0.45525246262960134,0.278206700527668,-0.2663065837723203
1620174249439352000,5.56935205078125,-0.4457634073376655,0.24888123732209205,-0.08214337261430919
1620174249449280000,5.579280029296875,-0.3806090903818607,0.10695639989674091,0.07142528698407113
1620174249459208000,5.5892080078125,-0.33535788990035653,-0.0348562093257904,0.21624454894298686
1620174249469136000,5.599135986328125,-0.2878654132980853,-0.05577332514822483,0.33143516349866986
1620174249479064000,5.60906396484375,-0.20978739042654632,-0.011124620604515075,0.40798528268318623
1620174249488992000,5.618991943359375,-0.16185535336323081,0.04427870218753814,0.41689555170647796
1620174249498920000,5.628919921875,-0.1613083870049566,0.17492577427327632,0.44655411932393907
1620174249508847900,5.638847900390625,-0.2085341754950583,0.24617607001662253,0.4593870416836813
1620174249518776000,5.648776123046875,-0.25814488636031746,0.3022527620255947,0.5464656787430867
1620174249528704000,5.6587041015625,-0.28433833515048024,0.30680735659003255,0.6420670468129217
1620174249538632000,5.6686318359375,-0.2998820143062621,0.25083295591175553,0.7434469617515802
1620174249548560000,5.678559814453125,-0.32555304665751755,0.15740940680503845,0.8061793122574686
1620174249558487800,5.68848779296875,-0.3545372221447527,0.027072715842723846,0.7666955892615019
1620174249568416000,5.698416015625,-0.34066651770249007,0.0005412672698497772,0.7245867784589528
1620174249578344000,5.708343994140625,-0.2670798149008304,0.008978256225585938,0.5994880977479741
1620174249588271900,5.71827197265625,-0.23708558558821677,-0.009869652107357978,0.4712530917726457
1620174249598199800,5.72819970703125,-0.2961655510663986,-0.04198854542374611,0.3269697085224092
1620174249608127700,5.738127685546875,-0.43516134930253025,-0.021955226698517797,0.15248780555911362
1620174249618056000,5.748055908203125,-0.5465899261772632,0.062196636193990705,0.00998443759344518
1620174249627984100,5.757984130859375,-0.6091128717161715,0.15910861193835735,-0.09154211927428842
1620174249637912000,5.767912109375,-0.6512604070939123,0.20456980190873145,-0.10740239009857178
1620174249647840000,5.777840087890625,-0.6804023304261266,0.12139116796255112,0.14280384874958543
1620174249657768000,5.787767822265625,-0.7494717749990523,-0.06411211442649364,0.42986466766651715
1620174249667697000,5.79769677734375,-0.7826490913271904,-0.21280045463740824,0.6469529922235757
1620174249677624800,5.807624755859375,-0.6976631156980991,-0.225568750795722,0.8299366199418902
1620174249687553000,5.817552978515625,-0.5666799435257911,-0.15888649362027643,0.9838698020037263
1620174249697481000,5.82748095703125,-0.5131130423806607,-0.07357493929862975,1.1002200531896202
1620174249707409000,5.837408935546875,-0.48671851806044575,0.04954992058873176,1.1749611136581748
1620174249717336800,5.8473369140625,-0.4533163069352507,0.23979659811258314,1.258233344171941
1620174249727264800,5.8572646484375,-0.31355610019788144,0.48468438188433643,1.3175269524008035
1620174249737193000,5.86719287109375,0.011201631363481283,0.8348819673895835,1.3048659160092473
1620174249747121000,5.877120849609375,0.41326282122731206,1.2436363712817429,1.2921977192245424
1620174249757048800,5.887048828125,0.7195731880806386,1.5997253529131412,1.320325350947678
1620174249766976800,5.896976806640625,0.8502537240445613,1.9198714990258217,1.365313808839768
1620174249776904700,5.90690478515625,0.7880290307998656,1.9895728117614984,1.2831377760648726
1620174249786833000,5.9168330078125,0.5574468357563018,1.744050821739435,0.9490352930530905
1620174249796761000,5.926760986328125,0.30597762776762244,1.357144092518091,0.4817102614443749
1620174249806689000,5.93668896484375,0.1337985218539834,0.9228910902321338,0.06891461933739483
1620174249816617000,5.946616943359375,0.05378069002628326,0.5400017799586058,-0.2817335594795644
1620174249826545000,5.956544921875,-0.05369198882952332,0.23037293620705604,-0.6115439713206142
1620174249836473000,5.96647314453125,-0.35093057595491406,-0.03127425918579101,-0.9483961183667182
1620174249846401000,5.976401123046875,-0.8773872301638126,-0.23804537053108213,-1.2811777280382812
1620174249856329000,5.986328857421875,-1.4408451429031788,-0.36912966499030586,-1.5367194461628795
1620174249866257000,5.9962568359375,-1.7392857992947102,-0.4024111723452806,-1.425147953686118
1620174249876184800,6.006184814453125,-1.5302419207118452,-0.2151514016777277,-0.6524584577720612
1620174249886113000,6.016113037109375,-1.0471874781168997,-0.07990472684204578,0.11217391534931957
1620174249896041000,6.026041015625,-0.6829846020042896,-0.12687865946292876,0.5541721979998052
1620174249905969000,6.035968994140625,-0.6142424896895885,-0.15255436798930166,0.8243434761099517
1620174249915896800,6.045896728515625,-0.6146026282388717,-0.1123638118982315,1.0274596451442688
1620174249925828600,6.05582861328125,-0.5156383961398154,-0.056659460332989686,1.1814924151230604
1620174249935756800,6.0657568359375,-0.4180255055844784,0.03495966970026493,1.27935708848238
1620174249945684700,6.075684814453125,-0.37891280785799025,0.16874503981173036,1.306125268420577
1620174249955612700,6.08561279296875,-0.358026598630473,0.26765140424370765,1.2861717369332908
1620174249965540600,6.09554052734375,-0.18011457508802414,0.2864753471791744,1.2464954139746725
1620174249975468500,6.105468505859375,0.22531682186126709,0.2922890018939972,1.15537122785151
1620174249985396700,6.115396728515625,0.7445733354330062,0.34639702417850493,0.9215256470978259
1620174249995325400,6.125325439453125,1.0768997486829757,0.42242227923870085,0.5730317967705428
1620174250005254000,6.13525390625,1.1244915209412574,0.5569768801569939,0.20986717766448854
1620174250015181800,6.145181884765625,0.9686299281001091,0.7126835746973753,-0.06662870035730302
1620174250025109800,6.15510986328125,0.6764391258835792,0.9153753077745437,-0.21886486924290655
1620174250035037700,6.16503759765625,0.4957172325521707,1.164981936761737,-0.19426102773174642
1620174250044965600,6.174965576171875,0.43158458679430184,1.3284709557414054,-0.01007671898677945
1620174250054893800,6.184893798828125,0.4557646499354392,1.4107137701421975,0.2896631103698164
1620174250064821800,6.19482177734375,0.5925252364654093,1.3785387627243995,0.7324890029508621
1620174250074749700,6.204749755859375,0.7851707918245345,1.1908978837847708,1.216693930755183
1620174250084677600,6.214677734375,0.9014112259604036,0.9599655601292848,1.678309644806385
1620174250094605600,6.22460546875,1.0323872377395629,0.7377244924515486,2.0563325180873275
1620174250104533800,6.23453369140625,1.2309260889209805,0.5655529853224754,2.3011609728872773
1620174250114461700,6.244461669921875,1.3627964191913604,0.46138300127387044,2.3989041387587786
1620174250124389600,6.2543896484375,1.3957862501233815,0.41024844184219833,2.382809328526258
1620174250134317600,6.264317626953125,1.4009361802324651,0.5151987626135349,2.2402802415974437
1620174250144245500,6.27424560546875,1.4729063146829604,0.6639554918855428,2.1149922123268245
1620174250154173700,6.284173583984375,1.5155578540600836,0.8264385486930609,1.8485031298607586
1620174250164101600,6.2941015625,1.5264672244787216,0.8688426891803741,1.5869675781488417
1620174250174029600,6.304029541015625,1.496679988980293,0.9023556672036648,1.3139169452100992
1620174250183957500,6.31395751953125,1.4316367311835287,0.8676876739263534,1.0258993370249867
1620174250193885400,6.323885498046875,1.3093459840327502,0.7409399473667144,0.6684063338145614
1620174250203814000,6.33381396484375,1.1547767690896986,0.5357505522549152,0.25649405041337014
1620174250213741800,6.343741943359375,0.9297710590042173,0.20500234810709952,-0.20662582112308592
1620174250223669800,6.353669677734375,0.695339641186595,-0.17214520364403724,-0.6806804167151451
1620174250233597700,6.36359765625,0.456404336078465,-0.5177110376954078,-1.079532362208888
1620174250243525600,6.373525634765625,0.4651145890176296,-0.7365490189313888,-1.3823551061421633
1620174250253453800,6.383453857421875,0.4426064046114683,-0.8205541668295859,-1.284364102989435
1620174250263381800,6.3933818359375,0.4085217641800642,-0.6749672997653484,-0.7300847913533449
1620174250273309700,6.403309814453125,0.4424200882591307,-0.3810504044085741,-0.060421698943339285
1620174250283237600,6.413237548828125,0.4930664257824421,-0.09294307211339473,0.5878177163615822
1620174250293165600,6.42316552734375,0.5795736196294426,0.09023556672036648,1.0955620713159442
1620174250303093800,6.43309375,0.7512655265480279,0.11298340510129928,1.514612536033988
1620174250313022700,6.443022705078125,0.9981585126623511,0.0361503407895565,1.8250415902525186
1620174250322950700,6.45295068359375,1.2960674002647399,-0.1009703112244606,2.049423177090287
1620174250332878600,6.462878662109375,1.5152438196748494,-0.14910335075259207,2.1202967484757305
1620174250342806500,6.472806640625,1.7439882778972386,-0.13872633364498616,2.1185171715825795
1620174250352734500,6.482734375,1.8925778339087962,-0.07035714629590512,1.8808841812446713
1620174250362663000,6.492662841796875,1.9666931636944411,0.02907762592434883,1.4807485526159405
1620174250372590800,6.5025908203125,1.9591095766976474,0.21554478490948675,1.0307172587007283
1620174250382518800,6.512518798828125,1.7545070415630935,0.44064299558401104,0.6103320382475853
1620174250392446700,6.52244677734375,1.4756956531405447,0.6622258916139603,0.2758224357396364
1620174250402374700,6.532374755859375,1.2533072859466075,0.8429355099856853,0.05229483538269997
1620174250412302800,6.542302734375,1.2187655493974685,0.8815127856612205,-0.049614217996597286
1620174250422230800,6.552230712890625,1.4219979652225971,0.8010416571080684,-0.03436228832900524
1620174250432158700,6.56215869140625,1.5600778176575898,0.6215010825157166,0.05523556500971317
1620174250442086700,6.572086669921875,1.760735414558649,0.3752443484783172,0.10766367138326167
1620174250452014600,6.5820146484375,1.9472516733825205,0.13328034319877624,0.16617694288939236
1620174250461942800,6.59194287109375,1.9635513585373758,-0.056101241928339,0.24159984814226626
1620174250471870700,6.60187060546875,1.9531734646469354,-0.12718904058635233,0.33910160647332666
1620174250481798700,6.611798583984375,1.9691139611005781,-0.04639174881875515,0.3812476805463433
1620174250491726600,6.6217265625,1.9336098092600702,0.15546061082482338,0.35014936244934797
1620174250501654500,6.631654541015625,1.7804712116420267,0.39054946963787074,0.25527736809998747
1620174250511582700,6.641582763671875,1.484108092176914,0.6002268238186836,0.16164163754731417
1620174250521510700,6.6515107421875,1.4313544071108102,0.6836158856451511,-0.025787352207303046
1620174250531438600,6.6614384765625,1.4175237424179912,0.652554392427206,-0.14665740063888952
1620174250541366500,6.671366455078125,1.335856974339485,0.4593406817913055,-0.1678203261822462
1620174250551294500,6.68129443359375,1.6698305702745913,0.0675473495721817,-0.1694911820039153
1620174250561223000,6.691222900390625,1.8509627979725598,-0.2225795058518648,-0.27133973736763
1620174250571150800,6.70115087890625,1.6363737063527106,-0.4313391606658697,-0.4323857471093535
1620174250581078800,6.711078857421875,1.247877369852364,-0.46721711425483226,-0.523003591145575
1620174250591006700,6.7210068359375,0.98319387550354,-0.36288404859900475,-0.6105082715973258
1620174250600934700,6.7309345703125,0.8957949935138225,-0.20071078839302062,-0.6707040893629193
1620174250610863600,6.740863525390625,0.7976981918990611,-0.06408113476634025,-0.7296572135910392
1620174250620791600,6.75079150390625,0.8922507450357079,-0.08481354167163371,-0.887103153014183
1620174250630719700,6.7607197265625,0.95243984079957,-0.26094109295010565,-0.8990253537371754
1620174250640647700,6.770647705078125,0.8326680907323956,-0.5123398660510778,-0.8275482635006308
1620174250650575600,6.78057568359375,0.6605173341304064,-0.7706862663328647,-0.689032065474987
1620174250660503600,6.790503662109375,0.6781324857980012,-0.9255752147495746,-0.506388264170289
1620174250670431500,6.800431396484375,0.900044467651844,-0.9705483289420604,-0.3014779782608151
1620174250680359700,6.810359619140625,1.2579103958278894,-0.9242267227500677,-0.17335516395568848
1620174250690287600,6.82028759765625,1.7537363494515419,-0.9965233126759528,0.018330021938681603
1620174250700215600,6.830215576171875,1.8071432377293706,-0.8676005801647901,0.14360939297880976
1620174250710143500,6.8401435546875,1.4878566310554742,-0.6927110462486743,0.23144465709179637
1620174250720071700,6.85007177734375,1.154852756935358,-0.4908686234772205,0.28473201064318415
1620174250730000000,6.859999755859375,0.8800815838143229,-0.22166239100694654,0.3188330907527357
1620174250739927800,6.869927734375,0.5982601999208331,0.11626140385866164,0.4303037532035261
1620174250749855700,6.879855712890625,0.3301952464401722,0.4756190318971872,0.535579287341237
1620174250759783700,6.88978369140625,-0.02660612124428153,0.7119283724159002,0.7399813314676285
1620174250769711600,6.899711669921875,-0.49857656750604507,0.7750017914444207,0.9009232963129877
1620174250779639800,6.909639892578125,-0.7136712705604732,0.6627233197420835,0.9856573430076241
1620174250789567700,6.919567626953125,-0.5823267177298664,0.37508652756810185,0.943470571598038
1620174250799495700,6.92949560546875,-0.41271249386817216,0.14126257412433624,0.7846505673427134
1620174250809423600,6.939423583984375,-0.23507044637352226,0.06428571742773055,0.591779971056059
1620174250819351600,6.9493515625,-0.11009455179199576,0.13283552204072474,0.36273115959223357
1620174250829279700,6.95927978515625,-0.27789456583857536,0.2915659483164549,0.1109562831878662
1620174250839207700,6.969207763671875,-0.4700008997544646,0.27940204779207706,-0.09646810443438589
1620174250849135600,6.979135498046875,-0.30777342514321204,0.05405015461742878,-0.13914375533945858
1620174250859063600,6.9890634765625,0.011763064638525247,-0.2229495082080364,-0.04388568428196013
1620174250868991500,6.998991455078125,0.3448435111261904,-0.47172728515565393,0.20591650380995125
1620174250878919700,7.008919677734375,0.6328887379705905,-0.6069394731998443,0.46622196573764085
1620174250888847600,7.01884765625,0.6576331569962203,-0.6009995617568492,0.6091554687488824
1620174250898775600,7.028775634765625,0.5199417193569242,-0.4485135828286409,0.711800069861114
1620174250908703500,7.038703369140625,0.5731348187536001,-0.2671171512365341,0.9260992386236786
1620174250918632700,7.0486328125,0.5587843679703772,-0.11564765587449073,1.1274617689236999
1620174250928560400,7.058560302734375,0.29261633415222166,-0.06198153213858604,1.2988172834947704
1620174250938488600,7.068488525390625,-0.20826690286099908,-0.043020811080932614,1.2846785757660866
1620174250948416800,7.078416748046875,-0.677440996402502,-0.14772738622426987,0.8372276537328958
1620174250958344700,7.0883447265625,-0.8806418480455875,-0.4254430883646011,0.22857786948382852
1620174250968272600,7.098272705078125,-0.6890468246527016,-0.6398328580200672,-0.2684570946034044
1620174250978200600,7.10820068359375,-0.4253998337447643,-0.8113514541983604,-0.5291059996739029
1620174250988128800,7.118128662109375,-0.3117464204274118,-0.9138573044270276,-0.6311600144818424
1620174250998056700,7.128056640625,-0.20924729220047592,-0.9179062875568866,-0.6847851486202329
1620174251007984600,7.137984619140625,-0.12612944853082297,-0.8881389258027076,-0.6744791509222239
1620174251017912600,7.14791259765625,-0.09614917467832565,-0.8332020514786243,-0.6590364479228854
1620174251027840500,7.157840576171875,-0.12237900995612144,-0.7881634708344936,-0.5726975963801145
1620174251037768700,7.167768798828125,-0.07041895948573947,-0.7133674653083085,-0.444384556732513
1620174251047696600,7.177696533203125,0.02293795412555337,-0.555590978756547,-0.3504559807131067
1620174251057624600,7.18762451171875,0.13024331359043717,-0.22157120559215546,-0.3393947807336226
1620174251067552500,7.197552490234375,0.22399127234593033,0.29935353345274923,-0.45424397970680147
1620174251077480400,7.20748046875,0.2651865485001355,0.9299187969118357,-0.7035109649434685
1620174251087408600,7.21740869140625,0.08342997835874558,1.7443758159101008,-1.1368228869870305
1620174251097336600,7.227336669921875,-0.19436697232425212,2.544494512954354,-1.6550345676809548
1620174251107264500,7.237264404296875,-0.46961759952530263,3.15999080209732,-1.8417966179594396
1620174251117192400,7.2471923828125,-0.5856107809018344,3.49121656062901,-1.7034923091188072
1620174251127120400,7.257120361328125,-0.4629717317700386,3.373018635749817,-1.1571876296237111
1620174251137048600,7.267048583984375,-0.33691023390889163,2.3974252983778714,-0.22565701360106466
1620174251146976800,7.276976806640625,-0.0872714562177658,0.8158475965738295,0.5665300136610866
1620174251156904700,7.28690478515625,0.7227900312352925,-0.6152350078582763,0.8241665121078491
1620174251166832600,7.29683251953125,1.6070027965702116,-1.419010473844409,0.664891311430931
1620174251176760600,7.306760498046875,2.2186422641545533,-1.8112351832181215,0.42237171809524293
1620174251186688800,7.316688720703125,2.4842583631783723,-1.8427163631528616,0.14514029234051704
1620174251196616700,7.32661669921875,2.32459913161993,-1.5236153421789407,-0.07011573875546455
1620174251206545700,7.336545654296875,1.8344038773596285,-1.019330187767744,-0.24099954416155814
1620174251216473600,7.3464736328125,1.3101988014698027,-0.4992904148638248,-0.3857499604016542
1620174251226401500,7.356401611328125,0.883318958300352,-0.13206103053689003,-0.4987444714188575
1620174251236329500,7.36632958984375,0.5802057069879025,0.21337503965497015,-0.4949456636577844
1620174251246257700,7.376257568359375,0.4469721986055374,0.6217307996183633,-0.3452075221329927
1620174251256185600,7.386185546875,0.30138766962885855,1.0214812283217907,-0.11645108121186494
1620174251266113500,7.396113525390625,0.18762750800140202,1.2106693367034196,0.08894238510467112
1620174251276041500,7.40604150390625,0.18926058909595012,1.2931740169107913,0.34973552095144983
1620174251285969400,7.415969482421875,0.15061784696877,1.2263970671892166,0.6360092080786823
1620174251295897600,7.425897705078125,0.08852993184626103,1.0750292786359785,0.9247793881967663
1620174251305825800,7.43582568359375,0.12145256102727725,0.7941630035102367,1.1255965595737099
1620174251315753700,7.445753662109375,0.8232055581212043,0.4495435103982687,1.1903519403398035
1620174251325681700,7.455681640625,2.003857942223549,0.03821253401637077,1.0530132616609333
1620174251335609600,7.465609619140625,2.8944565361380574,-0.20762451330423354,0.8269266244709491
1620174251345537500,7.47553759765625,3.176470227733254,-0.3240478297263384,0.7137971619624645
1620174251355465700,7.4854658203125,2.9708851113021373,-0.3170376587033272,0.8356266482770442
1620174251365393700,7.4953935546875,2.3697855963021515,-0.2834551225751638,1.0640893669486045
1620174251375321600,7.505321533203125,1.0882014794200658,-0.275644156563282,1.181680485041067
1620174251385249500,7.51524951171875,-0.7490221315354109,-0.27071780607700346,0.864860926067829
1620174251395177700,7.525177734375,-1.9839339290916918,-0.1822679537296295,0.33567418930791315
1620174251405105700,7.535105712890625,-1.7964976328134536,-0.06988368356525898,-0.06557371141165494
1620174251415033600,7.54503369140625,-0.7812544220983981,0.1364759243696928,-0.1571241235902533
1620174251424961500,7.55496142578125,0.3797779002547264,0.36110593301057814,-0.0378731459941715
1620174251434889500,7.564889404296875,1.31600427287817,0.4979758251339197,0.20327567044496536
1620174251444817700,7.574817626953125,1.5837176364421843,0.5071814603745937,0.32349487201869487
1620174251454745600,7.58474560546875,1.0321195267140866,0.440415616568923,0.29844029106535014
1620174251464673500,7.594673583984375,-0.07846504942774772,0.5070844297409057,0.28477234265357254
1620174251474601500,7.6046015625,-0.8853016565501689,0.45038171478807926,0.6707131494522094
1620174251484529400,7.614529296875,-0.5851578495025634,0.25533435898423196,1.165531022011861
1620174251494457600,7.62445751953125,0.2696259191870689,0.1092003794312477,1.2864061302110552
1620174251504385800,7.6343857421875,0.965487538421154,0.036781039908528324,1.1735934785667805
1620174251514314800,7.644314697265625,1.3033224859595298,0.04522270503938198,1.085935653379932
1620174251524242700,7.65424267578125,1.3029074754178522,-0.00012508768439292906,0.9763045543812214
1620174251534170600,7.664170654296875,1.0545663363218307,-0.1598205595999956,0.8775749347556382
1620174251544098600,7.6740986328125,0.748059423983097,-0.3278320244401693,0.7425085849229246
1620174251554026500,7.684026611328125,0.6140308927655219,-0.33666648828089235,0.7258502955887466
1620174251563954700,7.69395458984375,0.7598574138045311,-0.20949264526367187,0.6555138998199254
1620174251573882600,7.703882568359375,0.9028174394965172,-0.01756371374130249,0.4615042895659804
1620174251583810600,7.713810546875,0.8270493740677833,0.03793020994365215,0.07443915491253138
1620174251593738500,7.723738525390625,0.6228665256500244,0.03692074064016342,-0.3255661253347993
1620174251603666400,7.73366650390625,0.3848410288631916,-0.0038648587346076964,-0.6153112879648804
1620174251613594600,7.7435947265625,0.2157692413151264,-0.0792284350156784,-0.7356628837466239
1620174251623522600,7.7535224609375,0.1653156498849392,-0.11069675546884536,-0.7329471950471401
1620174251633450500,7.763450439453125,0.05552841047644615,-0.1660766973853111,-0.7272837624579668
1620174251643378400,7.77337841796875,-0.15730653095245362,-0.20423311730027197,-0.7622863945171237
1620174251653306400,7.783306396484375,-0.18732406807541846,-0.16763853987455368,-0.7290975338816642
1620174251663234800,7.79323486328125,0.34569442886710167,-0.09662263740897178,-0.3654328562989831
1620174251673162800,7.803162841796875,0.9434416377644985,-0.03653846332430839,-0.004645706913992762
1620174251683090700,7.813090576171875,1.1625368816971777,0.07550444605648517,0.251208803486824
1620174251693018600,7.8230185546875,1.0097043543536215,0.15258943930268287,0.45984914277009664
1620174251702946600,7.832946533203125,0.6233856541533023,0.1636333958864212,0.6359316858630627
1620174251712874800,7.842874755859375,0.25668818474598226,0.07382219205796718,0.7482472747053951
1620174251722802700,7.852802734375,0.14376198972463608,-0.08854045324027537,0.8583774092674255
1620174251732730600,7.862730712890625,0.2405084727089852,-0.24084698394834994,0.8928674156293273
1620174251742658600,7.872658447265625,0.42207850730232893,-0.27141630973517894,0.913319544288516
1620174251752586500,7.88258642578125,0.5228103335957974,-0.17317513121366498,0.8523376176465303
1620174251762514700,7.8925146484375,0.45450200958847997,0.002351531562209129,0.6763117001116276
1620174251772442600,7.902442626953125,0.38346389529109,0.21048165630102156,0.4680480121210217
1620174251782370600,7.91237060546875,0.31760939417667683,0.37633915797770023,0.25299239896796644
1620174251792298500,7.922298583984375,0.23648579306416212,0.35765608481764793,0.050191798688843846
1620174251802226400,7.932226318359375,0.03734517659731209,0.2829875050634146,-0.13458857625313103
1620174251812155400,7.9421552734375,-0.18763737180829046,0.22374913415312767,-0.29940146424770353
1620174251822083600,7.95208349609375,-0.2662216637015343,0.10446224499344825,-0.4075678244560957
1620174251832011800,7.96201171875,-0.4273206457395106,0.010267126992344855,-0.5871305743476376
1620174251841939700,7.971939697265625,-0.44950076723508536,-0.07612929995656013,-0.5832114646751433
1620174251851867600,7.98186767578125,-0.25574125928469,-0.09820727625191211,-0.4338601305108517
1620174251861794800,7.991794921875,0.016460063348338008,-0.010453004953265189,-0.1950695311030373
1620174251871722800,8.00172265625,0.11826039565615355,0.02119184111058712,0.054546450234390795
1620174251881650700,8.011650634765624,-0.001917231798171997,-0.0507943676918745,0.29025223536938427
1620174251891578600,8.02157861328125,-0.17399010085836053,-0.08325228370428085,0.5531147248361259
1620174251901506600,8.031506591796875,-0.18799524533525108,0.011933598899841307,0.8261522790975868
1620174251911434800,8.041434814453124,-0.1053800174254924,0.17111235346496104,0.8671735869243741
1620174251921362700,8.05136279296875,-0.08780804731249808,0.2743207990050316,0.7199898060575127
1620174251931286800,8.061286865234376,-0.0822447140969336,0.2445481765538454,0.5641329624567181
1620174251941214700,8.071214599609375,-0.1147090598501265,0.1630582263469696,0.4305732543272897
1620174251951143000,8.081142822265624,-0.14320567101612686,0.06638999623060227,0.4043939436603337
1620174251961070800,8.09107080078125,-0.04975231129303574,-0.010034487280249594,0.4669769488234073
1620174251970998800,8.100998779296875,0.08224003792181611,-0.09465338316261768,0.5713732889737934
1620174251980926700,8.1109267578125,0.21125432117395102,-0.19699673630595205,0.6913056364301592
1620174251990854700,8.120854736328125,0.2841105177439749,-0.407792865383625,0.7787736381333321
1620174252000782800,8.130782958984375,0.2731213600873947,-0.6040151101857424,0.898479702553153
1620174252010710800,8.140710693359376,0.12494389200806617,-0.6396458110153674,1.0121449524387716
1620174252020638700,8.150638671875,-0.07383454008288681,-0.25348610076904293,1.1508915251541882
1620174252030566700,8.160566650390624,-0.037277298992872236,0.47370063105523585,1.1463541009202598
1620174252040494800,8.170494873046875,0.2590997028671205,0.929041429555416,0.8163336995903402
1620174252050422800,8.1804228515625,0.5492905634380877,0.8494330553114414,0.38467758192978796
1620174252060351000,8.19035107421875,0.5913279895048588,0.45196226197779177,0.02890877216346562
1620174252070279000,8.20027880859375,0.3525121460579336,-0.01885784520506859,-0.28614472698532045
1620174252080206800,8.210206787109374,-0.1123044098611921,-0.35215982548892494,-0.57548941905573
1620174252090134800,8.220134765625,-0.5578420456189662,-0.4896364513337612,-0.7487037863012402
1620174252100062700,8.230062744140625,-0.5786367771707475,-0.40895372585654255,-0.7860043200392276
1620174252109991000,8.239990966796874,-0.24940847606658934,-0.18321487919092178,-0.7597127446368336
1620174252119919900,8.249919921875,-0.04657616547495126,0.0043301381587982175,-0.7329800744034349
1620174252129847800,8.259847900390625,-0.23150924676060675,0.07142448326647281,-0.5369745410919189
1620174252139775700,8.269775634765624,-0.5561924517810345,0.11461948187053203,0.1965656514123082
1620174252149703700,8.27970361328125,-0.722273825341463,0.11005787304341792,0.890174815544486
1620174252159631600,8.289631591796875,-0.7410124280810356,0.004275777623057365,1.2982795233562587
1620174252169559800,8.299559814453126,-0.6283773980259895,-0.21153087309300897,1.431181096370518
1620174252179487700,8.30948779296875,-0.4546785351991653,-0.39725568927824495,1.5029486939862369
1620174252189415700,8.319415771484374,-0.25821722094416616,-0.3468459369897842,1.645539594104886
1620174252199343900,8.32934375,-0.13435805543288587,0.16377601922750473,1.7258350738301873
1620174252209271800,8.339271728515625,-0.07290142395123839,0.6329688174694776,1.4456532738372683
1620174252219200000,8.349199951171874,-0.01714651124253869,0.5093132117062806,0.9191510999862104
1620174252229128000,8.3591279296875,0.012536825489997863,0.17031389656364918,0.4778811316102743
1620174252239056000,8.369055908203125,-0.05868497481122613,0.006324526846408844,0.24077136142887173
1620174252248983800,8.37898388671875,-0.258651082316786,-0.05385433978438377,0.1522703634161502
1620174252258911700,8.388911865234375,-0.326247385597229,-0.14604630126953125,0.1325409230083227
1620174252268840000,8.39883984375,-0.17070859496966004,-0.183788879686594,0.22427681128904223
1620174252278767900,8.408767822265625,-0.0329740488409996,-0.0682008450448513,0.4280515172973275
1620174252288695800,8.41869580078125,-0.05832359415292739,0.16947744573950765,0.7050123094171286
1620174252298623700,8.428623779296874,-0.2907587235867977,0.3369733622729778,0.9175810011252761
1620174252308551700,8.4385517578125,-0.6093583709098398,0.39605741940438743,1.1263615525968371
1620174252318480000,8.44847998046875,-0.6821500508762895,0.3339537221908569,1.3287025725401937
1620174252328407800,8.45840771484375,-0.4849392334282398,0.2987538139939308,1.3959782655641435
1620174252338335700,8.468335693359375,-0.2588239546656608,0.3154325615942478,1.3585080743476747
1620174252348263700,8.478263671875,-0.16139233896136282,0.3452005078703165,1.2614374009102582
1620174252358191600,8.488191650390625,-0.17180851903557776,0.36051205877065656,1.1666627294555305
1620174252368119800,8.498119873046875,-0.16249474724531174,0.4013537722468376,1.1423246992737055
1620174252378047700,8.5080478515625,-0.0417535676240921,0.5077133752942085,1.1623340526014565
1620174252387975700,8.5179755859375,0.18669468413069842,0.6725918028056621,1.1525123312890528
1620174252397904000,8.52790380859375,0.3080031422458589,0.8639239374786615,1.1349481791563332
1620174252407831800,8.537831787109376,0.28272958477959037,0.9869926832646131,1.0843557637773453
1620174252417760800,8.5477607421875,0.24623905225023626,1.0016413863420486,0.9472923949085176
1620174252427689000,8.55768896484375,0.285889510115236,1.0099959577113389,0.8302696512885391
1620174252437617000,8.567616943359376,0.20581687936037776,0.921840704396367,0.6851467484742403
1620174252447544800,8.577544921875,-0.010889935065805911,0.729696668818593,0.40855800453722474
1620174252457472800,8.58747265625,-0.1745395514346659,0.5617214443355798,0.23701573522239922
1620174252467400700,8.597400634765625,-0.36708193868026134,0.38526013105809687,0.09147694508358836
1620174252477329000,8.607328857421875,-0.5769160908579826,0.27127894709110256,-0.003644493982195854
1620174252487256800,8.6172568359375,-0.7293452250324189,0.16266367407143115,-0.1793766162022948
1620174252497187800,8.627187744140626,-0.8516029466964304,0.19806173518896103,-0.2358605738379061
1620174252507115800,8.63711572265625,-0.8428454936146735,0.30901158863604067,-0.03470671785250306
1620174252517043700,8.647043701171874,-0.8856630372084676,0.32559038299322124,0.3070310823433101
1620174252526972000,8.656971923828126,-0.989299791163206,0.22933424080908296,0.677446549360454
1620174252536899800,8.66689990234375,-0.7486673267483711,0.19952946965396404,1.1164069986850023
1620174252546827800,8.676827880859374,-0.19281404379382727,0.208528184145689,1.4470396136291324
1620174252556755700,8.686755615234375,0.18853169029951095,0.2704021642565727,1.6322005123212933
1620174252566683600,8.69668359375,0.18830489580631254,0.33497663549780843,1.7620562878988681
1620174252576611800,8.70661181640625,0.08156520740017294,0.3829623755097389,1.7879348255209624
1620174252586539800,8.716539794921875,0.07142024548277258,0.39479368307888507,1.6951244398765264
1620174252596467700,8.7264677734375,0.16234510964155197,0.36582360918223855,1.511599471823126
1620174252606395600,8.736395751953125,0.2026196907542646,0.3233633545935154,1.2702949533656238
1620174252616323600,8.746323486328125,0.12950535470470786,0.2840051576733589,1.011465445742011
1620174252626251800,8.756251708984376,-0.0296060337126255,0.29074235697388645,0.7496677359625696
1620174252636179700,8.7661796875,-0.21097046273127196,0.390056717684865,0.4476341696456074
1620174252646108000,8.77610791015625,-0.36254400298967954,0.5756517700105905,0.19761632950901983
1620174252656035800,8.786035888671876,-0.514843227174133,0.7118740118801593,0.010004530533403158
1620174252665963800,8.7959638671875,-0.7403040606159716,0.7409627437204123,-0.16019070808663963
1620174252675892000,8.80589208984375,-0.8572867644865065,0.6772662243574857,-0.16647709487974643
1620174252685820000,8.81581982421875,-0.8527695062577724,0.5237789594322443,-0.0394420758113265
1620174252695747800,8.825747802734375,-0.857588450846821,0.355830038434267,0.10912176123708486
1620174252705676800,8.8356767578125,-0.8790929381031543,0.17869243333041668,0.24416984476074574
1620174252715604700,8.845604736328125,-0.8563094438869505,0.05292378093600273,0.35737536818012594
1620174252725532700,8.85553271484375,-0.8323300178844482,-0.017641455152630804,0.47708822766691444
1620174252735460900,8.8654609375,-0.7248224138457328,-0.03394669326543808,0.5894220828182994
1620174252745388800,8.875388916015625,-0.586766453742981,-0.0025531916141510007,0.6912116014711558
1620174252755316700,8.885316650390624,-0.42659927266240116,0.034116789135336875,0.8181994203969836
1620174252765244700,8.89524462890625,-0.22615970242619512,0.1287684187322855,0.9598587387539446
1620174252775172600,8.905172607421875,0.016411623380018864,0.28631811079084873,1.1142062737703322
1620174252785100800,8.915100830078124,0.256224019566644,0.45920507271289823,1.2107036773644386
1620174252795028700,8.92502880859375,0.4136673103749752,0.6087041447848082,1.254526306347549
1620174252804957000,8.93495703125,0.5186351668030024,0.7336223178297281,1.2146642515584827
1620174252814884900,8.944884765625,0.6593067892968654,0.7864607585698365,1.1597697550714015
1620174252824812800,8.954812744140625,0.8464228406447917,0.7925316029161215,1.1411638388007879
1620174252834741000,8.964740966796874,1.0582260278731583,0.818286221897602,1.1636569717682896
1620174252844669000,8.9746689453125,1.2820569950908423,0.8756675667643546,1.2476866695858537
1620174252854596900,8.984596923828125,1.464538883832097,0.9597112931072711,1.3692869502544402
1620174252864524800,8.99452490234375,1.5273311478316782,1.026521560576558,1.5204787977188825
1620174252874452700,9.00445263671875,1.534579219263792,1.0413345143049955,1.7051641878537833
1620174252884381000,9.014380859375,1.5098463445454835,0.9867226341515779,1.8487565200999379
1620174252894308900,9.024308837890626,1.5083727648615837,0.9220920488089323,1.9843473321981726
1620174252904236800,9.03423681640625,1.4413321957677603,0.8450035484313965,2.110138634815812
1620174252914164700,9.044164794921874,1.3231301792353392,0.9007979163676499,2.0818696949258446
1620174252924092400,9.054092529296875,1.3115822186522186,1.0702899751543997,1.958302205837518
1620174252934020600,9.0640205078125,1.4101035292893647,1.1653051773667336,1.5991737103797494
1620174252943948500,9.073948486328124,1.6178315029680728,1.0618424648046494,1.0084598341852427
1620174252953876500,9.08387646484375,1.8404029716439545,0.8174012557566166,0.3108328127138316
1620174252963804400,9.093804443359375,1.8937101989395915,0.6068757603138685,-0.4274128175349906
1620174252973732400,9.103732421875,1.757742077961564,0.37913843330740926,-1.1411235067903995
1620174252983660500,9.11366064453125,1.6113411180354653,0.08728256213366985,-1.7927414951503275
1620174252993588500,9.12358837890625,1.4242187100119887,-0.2798340094685554,-2.3410437782034275
1620174253003516400,9.133516357421875,1.1501800889492033,-0.6148965696841479,-2.758374871782958
1620174253013445600,9.143445556640625,0.7960860805273056,-0.8674836757868528,-3.067947601433098
1620174253023373600,9.15337353515625,0.45825054846704005,-0.9724982939660548,-2.8975884044229985
1620174253033301500,9.163301513671875,0.043929304227977986,-0.8041817086994647,-1.7694719709828495
1620174253043229700,9.173229736328125,-0.22321254305839539,-0.6026572658360004,-0.5766248528264463
1620174253053157600,9.18315771484375,-0.3155838066332042,-0.4945990421772003,0.3910493454514071
1620174253063085600,9.19308544921875,-0.16903949271366,-0.34858488961160183,1.1788470151808113
1620174253073013500,9.203013427734374,0.2517506552785635,-0.19363690448403356,1.7510434571057556
1620174253082941400,9.21294140625,0.7625926839873194,-0.022035890719294546,2.0516857151947914
1620174253092869600,9.22286962890625,1.3031868768811226,0.2943172928512096,2.2078563739851114
1620174253102797600,9.232797607421874,1.8859543241158128,0.5409492899417877,2.2458879984766242
1620174253112725500,9.2427255859375,2.3897493569225072,0.6597521949768066,2.158332903011888
1620174253122653400,9.2526533203125,2.5551073846444488,0.5490636228144169,1.6403132377587257
1620174253132581400,9.262581298828126,2.33647953902781,0.17677987770736217,0.7833530018128454
1620174253142509600,9.272509521484375,1.8816981279760598,-0.35894787819385526,-0.0831142269404605
1620174253152437500,9.2824375,1.4613766204088925,-0.9384072237938642,-0.870497909041494
1620174253162365400,9.292365478515626,1.1851911965757607,-1.4438643445938826,-1.511394304639846
1620174253172293600,9.302293701171875,1.0254369802102445,-1.7620318841099738,-2.0031709828726947
1620174253182221600,9.3122216796875,0.7436173498824238,-1.7741057682633399,-2.262119294570386
1620174253192149800,9.322149658203125,0.34525837553739547,-1.5040005411267279,-2.1452859360426664
1620174253202077700,9.33207763671875,0.07060439905524253,-1.0114666147857905,-1.6352859111160039
1620174253212005600,9.342005615234376,0.02248626483529806,-0.4709697447866201,-1.0325527304995805
1620174253221933600,9.35193359375,0.2263680844798684,-0.04024082497358322,-0.5331115089882165
1620174253231861500,9.361861572265624,0.5994210603937506,0.23836861113607882,-0.0695631829066202
1620174253241789700,9.371789794921876,0.9977233361154794,0.3103419604569673,0.3542287772500887
1620174253251717600,9.381717529296875,1.3658566835448145,0.18843582870960235,0.6696430360026657
1620174253261645600,9.3916455078125,1.4211284889116882,-0.07188508651554584,0.8331495906390249
1620174253271573500,9.401573486328125,1.18148123614192,-0.29314357289671894,0.8359063420012592
1620174253281501400,9.41150146484375,0.9153124716714024,-0.3851677765995264,0.72779989528656
1620174253291429600,9.4214296875,0.7283832481324672,-0.41515608762800693,0.6186124484021216
1620174253301358300,9.4313583984375,0.6885013195991516,-0.4968856918096542,0.49035029869154095
1620174253311286500,9.44128662109375,0.7116647530436515,-0.6078975045770406,0.23769699548482892
1620174253321214500,9.45121435546875,0.4407993551895022,-0.6410843193858862,-0.08938888676315546
1620174253331142700,9.461142578125,-0.046535541203618046,-0.46031098812818527,-0.3785391522400081
1620174253341070600,9.471070556640624,-0.48981239242255686,-0.11537351510822773,-0.5369359626471996
1620174253350998500,9.48099853515625,-1.0441166923694312,0.25505086586773396,-0.46790999188981947
1620174253360926700,9.4909267578125,-1.4940455488234758,0.4601777171373367,-0.23175028897486627
1620174253370854700,9.500854736328124,-1.2192901577934623,0.37286300629973407,0.012165875569044146
1620174253380782600,9.510782470703125,-0.3309533713310957,0.09440613040328025,0.16770393326096236
1620174253390710500,9.52071044921875,0.2599833538338542,-0.21216274125576018,0.2757975935593247
1620174253400638500,9.530638427734376,0.5654056858062744,-0.4546878875494003,0.3542647618789226
1620174253410566700,9.540566650390625,0.6684785222679376,-0.6207014565706253,0.436261273368448
1620174253420494600,9.55049462890625,0.4061854301869869,-0.660779199936986,0.6159199213825166
1620174253430422500,9.560422607421875,0.09756488669514655,-0.6145721600353717,0.8993122809197753
1620174253440350500,9.5703505859375,-0.02340513324588537,-0.6000660802990198,1.1874270658690482
1620174253450278400,9.5802783203125,-0.08082929434105754,-0.639327831107378,1.4106971112683415
1620174253460206600,9.59020654296875,-0.13953501967936754,-0.6907154885172844,1.4574138542577624
1620174253470134500,9.600134521484375,-0.23932591186091304,-0.6544365529119968,1.1924992545668036
1620174253480062500,9.6100625,-0.2721732655823231,-0.5209276616543531,0.726343632063642
1620174253489990400,9.619990478515625,-0.22899930976629257,-0.29330080928504465,0.3066330229364335
1620174253499918300,9.62991845703125,-0.19941665692925453,0.010534253495931624,-0.02592887956984341
1620174253509846500,9.639846435546875,-0.12571692220717667,0.20690438233613967,-0.26679964625257996
1620174253519774500,9.6497744140625,-0.05017521288022399,0.18096388539373873,-0.394903865455091
1620174253529702700,9.65970263671875,-0.030207506737112998,-0.0011082535028457642,-0.38841801056712866
1620174253539630600,9.669630615234375,-0.10436930601298808,-0.3197989401102066,-0.26296836099401116
1620174253549558500,9.67955859375,-0.26552213713005185,-0.672080930674076,-0.11970188143504783
1620174253559486700,9.68948681640625,-0.4094558301597833,-0.9610019174396991,-0.04276537501513958
1620174253569414700,9.69941455078125,-0.4208902473658323,-1.1815630692064762,-0.04718962119817734
1620174253579342600,9.709342529296874,-0.3467014139525592,-1.2541612724274396,-0.06337870385171845
1620174253589271600,9.719271484375,-0.4164050647757947,-1.235469431439042,-0.04631445493199862
1620174253599199500,9.729199462890625,-0.5501075789093971,-1.102227666684985,0.022877309979498384
1620174253609127400,9.73912744140625,-0.534621694355458,-0.9507219309657812,0.09619095886028371
1620174253619055600,9.7490556640625,-0.42022915310859676,-0.8776841672837734,0.16676073412671685
1620174253628983600,9.758983642578125,-0.3294441358119249,-0.8073755363047123,0.18771745130717754
1620174253638911500,9.768911376953126,-0.2013162800054997,-0.6074222882807254,0.10342106537744403
1620174253648839400,9.77883935546875,-0.0413120344016701,-0.27639000649452206,-0.09889892091103829
1620174253658767400,9.788767333984374,-0.03184292591921985,0.18281798882782457,-0.44665655678510663
1620174253668695600,9.798695556640626,-0.15289499812051652,1.0275912356346846,-0.862987679541856
1620174253678623500,9.80862353515625,-0.39661373811289663,2.2121610854417084,-1.3359946292445062
1620174253688551700,9.8185517578125,-0.9140268157750367,3.61626566657722,-1.639544299212843
1620174253698479600,9.828479736328125,-1.801499532753974,4.974148010241985,-1.5969785384230315
1620174253708407600,9.838407470703125,-2.7222499576956034,5.90928951023817,-1.0898054074853658
1620174253718335700,9.848335693359376,-2.858727051109075,5.7016112209200855,-0.29457152334060516
1620174253728263700,9.858263671875,-2.235734122600406,3.5680005251020193,0.7639069083910435
1620174253738191600,9.868191650390624,-1.5007592211179435,0.9453367307960987,1.7141966584846375
1620174253748119600,9.87811962890625,-0.7569399189226329,-0.681786332130432,2.0363107436694206
1620174253758047500,9.888047607421875,0.25463885100074113,-1.9029969365924595,2.0232564701765776
1620174253767975700,9.8979755859375,1.310442547097802,-2.798170583337545,1.82946846678406
1620174253777903600,9.907903564453125,2.051806857356429,-3.1555344072103497,1.7255052573539316
1620174253787831600,9.91783154296875,2.130398163512349,-2.725708573716879,1.6321194099090992
1620174253797759500,9.927759521484376,1.386889242440462,-1.3564122711122035,0.9879105287618934
1620174253807687400,9.9376875,0.41659284243285655,-0.3017161709308624,0.21185952052548526
1620174253817615600,9.94761572265625,-0.3154482706200331,0.22451193521916865,-0.25520218397192657
1620174253827543600,9.95754345703125,-0.6697545335531234,0.521578819039464,-0.4474434693790972
1620174253837471500,9.967471435546875,-0.6465536907076835,0.5658440772235394,-0.33311244906112547
1620174253847399400,9.9773994140625,-0.4531289676696062,0.4343500329196453,0.12949468718022109
1620174253857327400,9.987327392578125,-0.2069768630504608,0.22898586576282975,0.5881662375383079
1620174253867255600,9.997255615234375,0.05463646660540253,-0.04830722705125808,0.698402316692844
1620174253877184500,10.0071845703125,0.2904922181377187,-0.27977263467013835,0.48128750598765907
1620174253887112700,10.01711279296875,0.529544062297605,-0.3551858953118324,0.10034962204284965
1620174253897040600,10.02704052734375,0.6962684464693069,-0.16770517536997795,-0.324933526519686
1620174253906968600,10.036968505859376,0.7454226457387209,0.04385433929562568,-0.7060409218125044
1620174253916896500,10.046896484375,0.7621241896927357,0.2110381211400032,-0.943362069722265
1620174253926825000,10.056824951171874,0.6911240693181753,0.329662162476778,-1.1241785825345665
1620174253936753200,10.066753173828126,0.5648217484384774,0.3558966739296913,-1.2830683640904723
1620174253946681000,10.07668115234375,0.43154608141481876,0.2034913590222597,-1.3694219748109577
1620174253956609000,10.086609130859374,0.47835810147225855,-0.1016062710404396,-1.0819367930021135
1620174253966537000,10.096536865234375,0.6194833129525185,-0.23740298097431659,-0.5713020503684878
1620174253976465000,10.10646484375,0.8017576964229345,-0.18897651145756245,-0.16051402175687252
1620174253986393000,10.11639306640625,1.0198153409361839,-0.08506079443097114,0.08588833129629492
1620174253996321300,10.1263212890625,1.2473007390081883,0.012883446970582007,0.1932178022891283
1620174254006249200,10.136249267578124,1.422784731686115,0.09569149403870106,0.2273780652400106
1620174254016177200,10.14617724609375,1.4197837963044642,0.12658289138674736,0.2687817234478891
1620174254026105000,10.15610498046875,1.1873743858337402,0.12641396456062792,0.3742835406221449
1620174254036033300,10.166033203125,0.7403530873894691,0.15409809029996394,0.5030271171741187
1620174254045961200,10.175961181640625,0.07764206087337806,0.22758885844647883,0.5761321739386767
1620174254055889200,10.18588916015625,-0.5877285767734051,0.2741547947883606,0.36515177433528007
1620174254065817000,10.195817138671876,-0.8561457046926021,0.22974106804430483,0.10644004787243902
1620174254075745000,10.2057451171875,-0.6251940918147564,0.14342238250672817,-0.03298625073544681
1620174254085673200,10.215673095703124,-0.23983636386739088,0.05737959130108356,-0.014908011600747704
1620174254095601200,10.22560107421875,0.044926388973928984,0.01887596538364887,0.12143376499526203
1620174254105529000,10.235529052734375,0.22680618363618849,0.02982698298692703,0.25853622376546265
1620174254115457000,10.24545703125,0.3364893781483173,0.04080196598768234,0.4092836884632706
1620174254125385000,10.255385009765625,0.3381236648192629,0.10492109467685222,0.4958710348743945
1620174254135313200,10.265313232421875,0.2901718636095524,0.16418518455028533,0.5594501384027302
1620174254145241000,10.275240966796876,0.20162962027098982,0.23161270713508128,0.6065457246419041
1620174254155169000,10.2851689453125,0.045810149538516996,0.24925883846282956,0.6610720454037189
1620174254165097000,10.295096923828124,-0.1294131463766098,0.21224223623275756,0.7176184007510542
1620174254175025000,10.30502490234375,-0.2381424742300063,0.11891337967216968,0.7876989951279014
1620174254184954000,10.3149541015625,-0.18444482284467667,0.06763678142130375,0.8475386198669671
1620174254194882000,10.324882080078124,0.011732450304552913,0.11242869382798672,0.8194044853378086
1620174254204810200,10.334810302734375,0.2745020007908344,0.30126550455391404,0.6638108227178454
1620174254214738200,10.34473828125,0.3721826228201389,0.48189738151431083,0.39626536306664345
1620174254224666000,10.354666015625,0.2651297768115997,0.5052326643943786,0.1363401691608131
1620174254234594000,10.364593994140625,0.04113755461759865,0.33115970755815505,0.010445917625352739
1620174254244522000,10.37452197265625,-0.17049217574000358,0.0600268909394741,-0.007372428464144468
1620174254254450200,10.3844501953125,-0.13615860204882918,-0.1508195070207119,0.012063874216005206
1620174254264378000,10.394378173828125,0.11374547551497817,-0.2692746215313673,0.06623261371180415
1620174254274306000,10.40430615234375,0.44338323420286174,-0.3119681003540754,0.0903477949231863
1620174254284234000,10.41423388671875,0.7364426359474658,-0.27800211786627765,0.0948264016419649
1620174254294162000,10.424161865234375,0.843590101436898,-0.22616730121076106,0.07182495382614433
1620174254304090000,10.434090087890626,0.7520224823951721,-0.2005798554897308,0.060977323532104485
1620174254314018000,10.44401806640625,0.533845010894537,-0.2051116537004709,0.09050605422481894
1620174254323946000,10.453946044921874,0.28522549324855206,-0.2545949387937784,0.17275339867025613
1620174254333874000,10.4638740234375,0.06288987915515899,-0.2916413516402244,0.2831539476715028
1620174254343801900,10.4738017578125,-0.03976027491502464,-0.23627251563966273,0.4381278709579259
1620174254353730300,10.483730224609374,0.02369067218899727,-0.07871697836220264,0.4892106271371245
1620174254363658200,10.493658203125,0.18883556861691175,0.15224281782209872,0.43317576497588306
1620174254373586200,10.503586181640625,0.18102175306081772,0.34034780714213847,0.3201008456662297
1620174254383514000,10.51351416015625,0.07532631301060319,0.44057811365425587,0.21194040374197065
1620174254393442000,10.523442138671875,-0.06831190420389174,0.3842226047039032,0.12983743620328606
1620174254403370200,10.533370361328124,-0.1764073911331594,0.18753391143381595,0.034980712488293646
1620174254413298200,10.543298095703125,-0.22571429674625396,-0.06192132638394832,-0.05764664473943412
1620174254423226000,10.55322607421875,-0.22126725420951843,-0.2648842776179314,-0.09531126254945993
1620174254433154000,10.563154052734374,-0.19435820449590682,-0.37497429936528204,-0.0686990038253367
1620174254443082000,10.57308203125,-0.11527487703934311,-0.33823066885769365,-0.02566431034952402
1620174254453010200,10.58301025390625,0.0027156886994838714,-0.17891045999526978,0.016728212765231728
1620174254462938000,10.592938232421876,0.06926701297163963,-0.022202479457855223,0.050619668712094425
1620174254472866000,10.602865966796875,0.08143909680247306,0.08676233765184879,0.06827062234543263
1620174254482795000,10.612794921875,-0.07503492884859442,0.13994739987254143,0.06279153334721922
1620174254492723000,10.622722900390626,-0.35619010391831396,0.1002162779867649,0.08208046344593167
1620174254502651000,10.63265087890625,-0.5346656796276569,0.04343465257883072,0.14077004136703908
1620174254512579300,10.642579345703124,-0.5031646990139037,0.024949147817492485,0.1672944391446188
1620174254522507300,10.65250732421875,-0.31940511848703024,0.03492927456200123,0.1478094019519165
1620174254532435200,10.662435302734375,-0.09688581838980316,0.07179565466642379,0.07827898880373686
1620174254542363100,10.672363037109376,-0.02709258958697319,0.10267185444533825,-0.01633789827339351
1620174254552291000,10.682291015625,-0.18295652051568032,0.12029168228805065,-0.12660963326320052
1620174254562219300,10.69221923828125,-0.4630491809204221,0.17369477117359639,-0.18976762530263513
1620174254572147200,10.702147216796876,-0.6791422473624348,0.21262568259239195,-0.1461541090255603
1620174254582075100,10.7120751953125,-0.7258359017372131,0.16000176138579844,-0.05961012683212757
1620174254592003000,10.722003173828124,-0.5363983486391604,0.0656517450839281,-0.007166603693738579
1620174254601931000,10.731930908203125,-0.29692557565346356,-0.02666413504183292,0.0406106081340462
1620174254611859200,10.741859130859375,-0.1623379492484033,-0.061006549626588816,0.08822663805074989
1620174254621787100,10.751787109375,-0.1637711969219148,-0.009847440275549887,0.06849664965365082
1620174254631715000,10.761715087890625,-0.260901345461607,0.07764087356328964,0.030478761426545677
1620174254641643000,10.77164306640625,-0.24065263042002916,0.15339549498856067,0.008602408650517463
1620174254651571000,10.781571044921876,-0.21384499525427816,0.14548340668976306,-0.008944207825511693
1620174254661499100,10.7914990234375,-0.2735971609055996,0.0836637871146202,0.04912029699981212
1620174254671427000,10.801427001953124,-0.3289958075225353,0.04415595259070396,0.1839347178980708
1620174254681355000,10.81135498046875,-0.22809680796861648,0.025061960542201993,0.30290260423645377
1620174254691283000,10.821282958984375,-0.040394115839153526,0.036081367206573484,0.3898399331290275
1620174254701211000,10.8312109375,0.0890178614936769,0.04517535876631736,0.4542909971863031
1620174254711139300,10.841139404296875,0.02100640154108405,0.018245266264677047,0.45620311441794037
1620174254721067300,10.8510673828125,-0.1667524046897888,-0.030067806005477902,0.39969475299343465
1620174254730995200,10.8609951171875,-0.3524678685247898,-0.090730656760931,0.327986484349519
1620174254740923100,10.870923095703125,-0.350995019493252,-0.11183949576318264,0.26854111962504684
1620174254750851000,10.88085107421875,-0.19213950553312897,-0.13874737643301485,0.19826390669755636
1620174254760779300,10.890779296875,-0.12560089461207388,-0.19291794255971909,0.12316840676814317
1620174254770707200,10.900707275390625,-0.10614449899196624,-0.20261516070961952,0.10197700404897332
1620174254780636200,10.91063623046875,-0.09424699431881307,-0.150627199319005,0.12490852843374013
1620174254790564000,10.920564208984375,-0.12274492065906524,-0.08842121077477931,0.12292933731526136
1620174254800492000,10.930491943359375,-0.25036110061630606,-0.043511809468269345,0.18058650344870983
1620174254810420000,10.940419921875,-0.4201462971307337,-0.0800169550448656,0.36160299581252037
1620174254820348000,10.950347900390625,-0.5122139015838504,-0.16762801848053932,0.5852956505380571
1620174254830276000,10.960276123046874,-0.5489795977927744,-0.21041618984937666,0.7779661211427301
1620174254840204000,10.9702041015625,-0.48265638318806886,-0.16633330249488354,0.9743025669090449
1620174254850132000,10.980132080078125,-0.39505174949318167,-0.04508592691719532,1.0564250428657977
1620174254860060000,10.990059814453126,-0.34238808079808947,0.10386486362218857,0.9560252980709075
1620174254869988000,10.999988037109375,-0.4158239038869738,0.2936895163416862,0.680272128175199
1620174254879916300,11.009916259765625,-0.5085314136788248,0.4401666102439165,0.41104295322075485
1620174254889844200,11.01984423828125,-0.5304889784649014,0.3961205477684736,0.21521540682464838
1620174254899772200,11.029772216796875,-0.6437737046003341,0.21363164476454258,0.03042772535905242
1620174254909700000,11.0397001953125,-0.8310346443116664,0.05424129327535629,-0.05091770181059837
1620174254919628000,11.0496279296875,-0.5549990042127668,0.06171966633200645,0.4137937132336199
1620174254929555700,11.0595556640625,0.1569324369430542,0.5042699568420649,1.2272481310606003
1620174254939483600,11.069483642578126,0.6133209909304976,1.0507587607324123,1.6274856126286088
1620174254949411600,11.07941162109375,0.8614575473651289,1.4449176530390977,1.756511367122829
1620174254959339500,11.089339599609374,0.999007238446176,1.801099573650956,1.8713064978212117
1620174254969267700,11.099267822265626,0.9199941997468472,2.0838596996992824,2.020037946521491
1620174254979195600,11.109195556640625,0.7125622864052653,2.205788627800345,2.115282427445054
1620174254989123600,11.11912353515625,0.3752697751805186,2.1377245608776807,2.0919889378800987
1620174254999051500,11.129051513671875,-0.070811465934664,1.7499632606536148,1.7781243562549351
1620174255008979500,11.1389794921875,-0.5253988157190382,1.1725994260281323,1.3280052379257976
1620174255018908000,11.148907958984376,-0.8876721850737929,0.5331441691488027,0.9055841277308762
1620174255028835800,11.1588359375,-1.0164236526712775,-0.035565818899869914,0.6507998038448393
1620174255038763800,11.168763671875,-0.8776733536288142,-0.5061971255123615,0.3589034545302391
1620174255048691700,11.178691650390626,-0.7475143573209643,-0.7969669550150632,-0.05434460751935839
1620174255058619600,11.18861962890625,-1.0810606677547097,-0.8886164801865816,-0.5275261831365525
1620174255068547800,11.1985478515625,-1.7491903765849768,-0.7884417032539844,-0.9319330593436956
1620174255078476500,11.2084765625,-2.185445804734528,-0.5142600204586982,-1.1278488685451447
1620174255088404700,11.21840478515625,-1.8002242521211504,-0.05743044470548629,-0.5568056152433156
1620174255098332700,11.228332763671874,-0.9326258639134466,0.3342991746276617,0.440699109685421
1620174255108260600,11.238260498046875,-0.45885757444947955,0.6082435415357351,1.1184800055667756
1620174255118188500,11.2481884765625,-0.5622482446886599,0.8061725902557373,1.3815164633609354
1620174255128116500,11.258116455078126,-0.8719304260626435,0.9971692093640565,1.2512730036400257
1620174255138044700,11.268044677734375,-0.9584408347800374,0.9570043722361326,0.9502871928103268
1620174255147972600,11.27797265625,-0.7406399415068328,0.7282230891346931,0.7367876499928534
1620174255157900500,11.287900634765625,-0.4892611882805824,0.5324807368040084,0.6485431109592318
1620174255167828500,11.297828369140625,-0.3850060101665556,0.43194589438736436,0.6347364116638898
1620174255177756700,11.307756591796876,-0.4457482097685337,0.34595687919557094,0.5886702415376901
1620174255187684900,11.317684814453125,-0.5263631307065486,0.18574585897326468,0.5386350216500461
1620174255197612800,11.32761279296875,-0.5933961010158062,0.04759878652095794,0.6143991415560245
1620174255207540700,11.337540771484376,-0.7096057746872305,0.057523968207836146,0.8764628087952733
1620174255217468700,11.34746875,-0.8115722573421895,0.12072481300830841,1.1422359980769454
1620174255227396600,11.357396728515624,-0.8251547924928366,0.15751812787652014,1.2934947732977569
1620174255237324800,11.36732470703125,-0.7634406791187822,0.16804828971922398,1.3711023291133344
1620174255247252700,11.377252685546875,-0.6264907074965537,0.16297288615107536,1.328977882350236
1620174255257180700,11.3871806640625,-0.418853334710747,0.13308511288762093,1.2327854530520737
1620174255267108600,11.397108642578125,-0.18240107859000562,0.07898059773445129,1.1006094178333878
1620174255277036500,11.40703662109375,0.06579612199068069,0.07249883449971675,0.9615797173276543
1620174255286964700,11.41696484375,0.2485278938397765,0.1337491297543049,0.7780119330458343
1620174255296892700,11.426892578125,0.3281752849198878,0.2397463292300701,0.5596915459431707
1620174255306820600,11.436820556640624,0.32852453674897547,0.3996586587667465,0.345719855569303
1620174255316748500,11.44674853515625,0.23086378846392033,0.6398492246329784,0.1055130692206323
1620174255326676500,11.456676513671875,-0.02570624979510903,0.89199501670897,-0.19269582424163817
1620174255336604700,11.466604736328126,-0.47068858975768085,1.0222650721758604,-0.49025253740549085
1620174255346532600,11.47653271484375,-0.9219966256104409,1.0168132365107536,-0.7651818236976862
1620174255356460500,11.48646044921875,-1.1442963646728546,0.7927204034864902,-0.9318338367529213
1620174255366388500,11.496388427734376,-0.9723814626533538,0.3837257610976696,-0.8834845241256057
1620174255376316700,11.506316650390625,-0.570556638828665,0.1131827270656824,-0.5901397295683622
1620174255386244900,11.516244873046874,-0.25391280174851416,0.06510580163896083,-0.2127528161033988
1620174255396173800,11.526173828125,-0.11048157834820449,0.18845745601952074,0.1314370534196496
1620174255406101800,11.536101806640625,-0.20738369028568265,0.40591596559584137,0.44329804013743995
1620174255416029700,11.54602978515625,-0.4739245029389858,0.610921820834279,0.6160149061895906
1620174255425957600,11.55595751953125,-0.765596249717474,0.7479045256823301,0.7685314263865352
1620174255435885600,11.565885498046875,-1.0329086312651634,0.8194979357749224,0.8790556017674506
1620174255445813800,11.575813720703126,-1.0238310063183307,0.7647890249878168,0.8749345763146876
1620174255455741700,11.58574169921875,-0.7489326996862888,0.6851935102254152,0.8908549067631364
1620174255465669600,11.595669677734374,-0.31669399636480955,0.6046914020121097,0.8947799712523817
1620174255475597600,11.60559765625,0.18426117337346076,0.5067804783582687,1.0588587728187442
1620174255485525500,11.615525390625,0.4652782551467418,0.5046949042558669,1.1259544331006706
1620174255495453700,11.62545361328125,0.4473556449651718,0.5595049373298883,1.1689470410004257
1620174255505381600,11.635381591796875,0.32154373795092106,0.5775982279032469,1.0860242084462195
1620174255515309600,11.6453095703125,0.4742021508365869,0.5019242704987525,1.1105450478490442
1620174255525237500,11.655237548828126,0.5199539212513715,0.4624246192812919,1.1422682198461145
1620174255535165700,11.665165771484375,0.5752923255810514,0.38181554356217384,1.0518995282653718
1620174255545094000,11.675093994140624,0.7367682146400213,0.39965164450407026,0.9059981153592467
1620174255555021800,11.685021728515625,0.9540694147627801,0.3951110784649849,0.744548639383167
1620174255564949800,11.69494970703125,1.0692823324818164,0.3514858717501163,0.7916052818514406
1620174255574877700,11.704877685546874,0.9542518586575984,0.3376712814092636,0.8319398495230823
1620174255584805600,11.7148056640625,0.7972574623942374,0.39607963123619555,0.9111889620006084
1620174255594733800,11.72473388671875,0.692299542838335,0.47841830722689627,0.8781424324452877
1620174255604661800,11.734661865234376,0.5848563092727214,0.4849959320515394,0.7902013333376496
1620174255614589700,11.744589599609375,0.5782435400694609,0.3878472249418497,0.9565781096480787
1620174255624517600,11.754517578125,0.5961573824226856,0.32848902704417704,1.1529574447080493
1620174255634445600,11.764445556640625,0.642507630187273,0.2174386358320713,1.164096532229334
1620174255644373800,11.774373779296875,0.7943954970918595,0.049586160945892334,1.0440307676516474
1620174255654301700,11.7843017578125,0.880374137020111,-0.05048807822167873,0.9955556366875767
1620174255664229600,11.794229736328125,0.9358768285334109,-0.13952420602440832,0.8884075866762549
1620174255674157600,11.804157470703124,1.0035071802139282,-0.22576690371632574,0.7700853047650307
1620174255684086500,11.81408642578125,1.0759604220062493,-0.26308862637281416,0.6167638979259878
1620174255694014700,11.8240146484375,1.0121393994808197,-0.2401946575194597,0.4553891676865518
1620174255703942700,11.833942626953124,0.8754626918420195,-0.25177754328548907,0.34624117602966725
1620174255713870800,11.843870849609376,0.8622431447848677,-0.38571547361016273,0.21050653501395136
1620174255723798800,11.853798828125,0.8559159875899552,-0.5941752686947583,0.13604476641081273
1620174255733726700,11.863726806640624,0.8227946392327546,-0.7689601731926202,0.16822050448097287
1620174255743654700,11.873654541015625,0.8749785615868866,-0.932407691118121,0.21924820600468664
1620174255753582600,11.88358251953125,1.0723265955485404,-1.1632616888403893,0.1955698087753728
1620174255763510800,11.8935107421875,1.1013125976666807,-1.4345125788807869,0.22153120237533003
1620174255773438700,11.903438720703125,1.0075438883841037,-1.6082938592940568,0.24707594146579503
1620174255783366700,11.91336669921875,0.8129454453915357,-1.6401035405308007,0.2528672382183373
1620174255793294600,11.923294677734376,0.5218710799843073,-1.4227104974061249,0.31495559173226356
1620174255803222800,11.933222900390625,0.3860854759663343,-0.9797960497587919,0.45302974507883187
1620174255813150700,11.943150634765624,0.5228253119692207,-0.45385962003171443,0.6567490676380694
1620174255823078700,11.95307861328125,0.6500909249231219,-0.07541501420736313,0.771751703607291
1620174255833006600,11.963006591796875,0.7151949729964137,0.08786708402335643,0.7846288669675588
1620174255842934500,11.9729345703125,0.6966948551878333,0.014357611176371573,0.66740636299178
1620174255852862700,11.98286279296875,0.6226575590744614,-0.19852116939425468,0.47465994107406584
1620174255862787800,11.992787841796876,0.6161179281726479,-0.4148211565852165,0.3141061718286946
1620174255872715800,12.0027158203125,0.5460834379598498,-0.41145957119762894,0.16108067919630556
1620174255882643700,12.012643798828124,0.4516255773693323,-0.2363087559968233,0.05284969278648495
1620174255892571600,12.022571533203125,0.393520009881258,-0.061703299719095224,0.01288899992853403
1620174255902499600,12.03249951171875,0.24049422498792408,0.015061960053443908,0.04792633797489106
1620174255912427800,12.042427734375,0.12990765189528464,-0.060218029597401614,0.06028364217951893
1620174255922355700,12.052355712890625,-0.09967881010919809,-0.24744740512669086,0.03642031683735549
1620174255932285000,12.062284912109375,-0.37436274333819747,-0.3009294044673443,0.11374744827635586
1620174255942212900,12.072212890625,-0.3083054861932993,-0.27155951759815217,0.0184171157002449
1620174255952140800,12.082140869140625,-0.03166939598321915,-0.07910977707207202,-0.1473367794714868
1620174255962068700,12.09206884765625,0.1783214080609381,0.09280570946931839,-0.18040997783802448
1620174255971996700,12.10199658203125,0.33357992044240237,-0.013212532794475554,-0.10960274968706071
1620174255981924900,12.1119248046875,0.5479056849509477,-0.2087555631607771,0.10174334142357111
1620174255991853800,12.121853759765624,0.6286801803648472,-0.35769524778425693,0.17944617430716753
1620174256001781800,12.13178173828125,0.6183133923903107,-0.46672027064859867,0.05174260832741856
1620174256011709700,12.141709716796875,0.815650174305588,-0.6213485223025084,-0.2594420134987682
1620174256021637600,12.1516376953125,0.9679203185260296,-0.7485024915754794,-0.5537400901928544
1620174256031565600,12.161565673828125,0.7834289896585047,-0.8766232600539923,-0.790126222274825
1620174256041493800,12.17149365234375,0.28226167500689625,-0.8956745820045471,-0.9638949354674666
1620174256051421700,12.181421630859376,-0.05169803853332996,-0.7434574831455946,-1.1862380752801895
1620174256061349600,12.191349609375,-0.2474672788709402,-0.6217834065884351,-1.518877792263031
1620174256071277600,12.201277587890624,-0.365552391025424,-0.6252326702594757,-1.935697136928141
1620174256081205500,12.21120556640625,-0.2582633981734514,-0.7668284218609333,-2.2595599654763934
1620174256091134000,12.221134033203125,0.06700242904052138,-0.9315373380243778,-1.9488680225379764
1620174256101062000,12.231061767578124,0.34278014885559677,-1.0688432834774255,-1.2974923185013234
1620174256110989800,12.24098974609375,0.5829898578137159,-1.080077209675312,-0.9309244668230414
1620174256120917800,12.250917724609375,0.7321247727483511,-0.9777321029663085,-0.7980132491976022
1620174256130845700,12.260845703125,0.5412136399663985,-0.9017425037413835,-0.8548379830949008
1620174256140774000,12.27077392578125,0.12120412095785141,-0.9028688774228095,-0.933264015686512
1620174256150701800,12.280701904296874,-0.3190074974715709,-0.7316349434047937,-1.064524835756421
1620174256160629800,12.290629638671875,-0.5918317743085324,-0.09232464795410633,-1.3293966922841964
1620174256170557700,12.3005576171875,-1.067986739713326,1.2821055104076862,-1.5358368181094526
1620174256180485600,12.310485595703126,-1.5235925458252428,3.084872140488028,-1.6779774902425706
1620174256190413800,12.320413818359375,-1.5655986269056796,4.840886371743679,-1.7919934532620012
1620174256200341800,12.330341796875,-1.4290904077015816,6.587821809008717,-1.7567353851370513
1620174256210269700,12.340269775390626,-1.365769151391834,7.366244222551583,-1.6575189318425951
1620174256220197600,12.35019775390625,-1.248515375494957,5.535715140798688,-1.7443414752490818
1620174256230125600,12.36012548828125,-0.9137152656078338,1.2937877648949623,-1.3555577001094816
1620174256240053800,12.3700537109375,-0.34759061787724493,-1.8598446080863476,-0.3907435309052467
1620174256249981700,12.379981689453125,0.25088965453505513,-3.3550030865877867,0.33060032010972495
1620174256259909600,12.38990966796875,0.9528260636381805,-3.926812794217467,0.8051857711754739
1620174256269837600,12.399837646484375,1.5746499483674763,-3.7480104707717894,1.257767480225861
1620174256279766800,12.409766845703125,2.1100480339229106,-2.8779379475355147,1.7249455776445566
